<?xml version="1.0" encoding="UTF-8"?>
<Bundle>
  <id value="15792624-5f41-4e1b-89cd-99bb6d64f628"/>
  <meta>
    <lastUpdated value="2020-05-31T19:18:49.635+00:00"/>
  </meta>
  <type value="searchset"/>
  <link>
    <relation value="self"/>
    <url value="http://hapi.fhir.org/baseR4?_getpages=15792624-5f41-4e1b-89cd-99bb6d64f628&amp;_getpagesoffset=1040&amp;_count=20&amp;_format=xml&amp;_pretty=true&amp;_bundletype=searchset"/>
  </link>
  <link>
    <relation value="next"/>
    <url value="http://hapi.fhir.org/baseR4?_getpages=15792624-5f41-4e1b-89cd-99bb6d64f628&amp;_getpagesoffset=1060&amp;_count=20&amp;_format=xml&amp;_pretty=true&amp;_bundletype=searchset"/>
  </link>
  <link>
    <relation value="previous"/>
    <url value="http://hapi.fhir.org/baseR4?_getpages=15792624-5f41-4e1b-89cd-99bb6d64f628&amp;_getpagesoffset=1020&amp;_count=20&amp;_format=xml&amp;_pretty=true&amp;_bundletype=searchset"/>
  </link>
  <entry>
    <fullUrl value="http://hapi.fhir.org/baseR4/MedicationStatement/1148019"/>
    <resource>
      <MedicationStatement>
        <id value="1148019"/>
        <meta>
          <versionId value="1"/>
          <lastUpdated value="2020-05-05T02:38:42.805+00:00"/>
          <source value="#TgOqmlZb1cfCaULX"/>
        </meta>
        <status value="active"/>
        <medicationCodeableConcept>
          <coding>
            <system value="http://hl7.org/fhir/sid/ndc"/>
            <code value="50580-600-02"/>
          </coding>
          <text value="TYLENOL REGULAR STRENGTH"/>
        </medicationCodeableConcept>
        <subject>
          <reference value="Patient/921330"/>
        </subject>
        <effectiveDateTime value="2020-04-26T21:38:35.2277443-05:00"/>
      </MedicationStatement>
    </resource>
    <search>
      <mode value="match"/>
    </search>
  </entry>
  <entry>
    <fullUrl value="http://hapi.fhir.org/baseR4/MedicationStatement/1142991"/>
    <resource>
      <MedicationStatement>
        <id value="1142991"/>
        <meta>
          <versionId value="1"/>
          <lastUpdated value="2020-05-03T22:13:17.016+00:00"/>
          <source value="#NzyoiIAvoZO6OVsY"/>
        </meta>
        <medicationReference>
          <reference value="Medication/1142989"/>
        </medicationReference>
        <subject>
          <reference value="Patient/1142992"/>
        </subject>
      </MedicationStatement>
    </resource>
    <search>
      <mode value="match"/>
    </search>
  </entry>
  <entry>
    <fullUrl value="http://hapi.fhir.org/baseR4/MedicationStatement/1142983"/>
    <resource>
      <MedicationStatement>
        <id value="1142983"/>
        <meta>
          <versionId value="1"/>
          <lastUpdated value="2020-05-03T22:09:56.794+00:00"/>
          <source value="#SZxvLNdo1ckNxlof"/>
        </meta>
        <medicationReference>
          <reference value="Medication/1142981"/>
        </medicationReference>
        <subject>
          <reference value="Patient/1142984"/>
        </subject>
      </MedicationStatement>
    </resource>
    <search>
      <mode value="match"/>
    </search>
  </entry>
  <entry>
    <fullUrl value="http://hapi.fhir.org/baseR4/MedicationStatement/1142979"/>
    <resource>
      <MedicationStatement>
        <id value="1142979"/>
        <meta>
          <versionId value="1"/>
          <lastUpdated value="2020-05-03T22:02:23.591+00:00"/>
          <source value="#Ydc5wAaxvPJVvYSX"/>
        </meta>
        <subject>
          <reference value="Patient/1142980"/>
        </subject>
      </MedicationStatement>
    </resource>
    <search>
      <mode value="match"/>
    </search>
  </entry>
  <entry>
    <fullUrl value="http://hapi.fhir.org/baseR4/MedicationStatement/1142975"/>
    <resource>
      <MedicationStatement>
        <id value="1142975"/>
        <meta>
          <versionId value="1"/>
          <lastUpdated value="2020-05-03T21:52:45.439+00:00"/>
          <source value="#Ks2F9be8gmSDXhxM"/>
        </meta>
        <medicationReference>
          <reference value="Bundle/26f46905-115e-42fd-ac68-bfa071e5ccd4"/>
        </medicationReference>
        <subject>
          <reference value="Patient/1142976"/>
        </subject>
      </MedicationStatement>
    </resource>
    <search>
      <mode value="match"/>
    </search>
  </entry>
  <entry>
    <fullUrl value="http://hapi.fhir.org/baseR4/MedicationStatement/1142762"/>
    <resource>
      <MedicationStatement>
        <id value="1142762"/>
        <meta>
          <versionId value="1"/>
          <lastUpdated value="2020-05-02T05:29:32.140+00:00"/>
          <source value="#sZFJsdG0tHKPl2Cj"/>
        </meta>
        <text>
          <status value="generated"/>
          <div>isosorbide mononitrate 20mg once daily</div>
        </text>
        <status value="active"/>
        <medicationCodeableConcept>
          <coding>
            <system value="http://snomed.info/ct"/>
            <code value="319134001"/>
            <display value="isosorbide mononitrate 20mg"/>
          </coding>
          <text value="isosorbide mononitrate 20mg"/>
        </medicationCodeableConcept>
        <subject>
          <reference value="Patient/1142691"/>
        </subject>
        <dosage>
          <text value="once daily at bedtime"/>
          <timing>
            <repeat>
              <frequency value="1"/>
              <period value="1"/>
              <periodUnit value="d"/>
            </repeat>
          </timing>
        </dosage>
      </MedicationStatement>
    </resource>
    <search>
      <mode value="match"/>
    </search>
  </entry>
  <entry>
    <fullUrl value="http://hapi.fhir.org/baseR4/MedicationStatement/1142751"/>
    <resource>
      <MedicationStatement>
        <id value="1142751"/>
        <meta>
          <versionId value="1"/>
          <lastUpdated value="2020-05-02T05:29:32.140+00:00"/>
          <source value="#sZFJsdG0tHKPl2Cj"/>
        </meta>
        <text>
          <status value="generated"/>
          <div>gabapentin 600mg twice daily</div>
        </text>
        <status value="active"/>
        <medicationCodeableConcept>
          <coding>
            <system value="http://snomed.info/ct"/>
            <code value="323021008"/>
            <display value="gabapentin 600mg"/>
          </coding>
          <text value="gabapentin 600mg"/>
        </medicationCodeableConcept>
        <subject>
          <reference value="Patient/1142691"/>
        </subject>
        <dosage>
          <text value="twice daily"/>
          <timing>
            <repeat>
              <frequency value="2"/>
              <period value="1"/>
              <periodUnit value="d"/>
            </repeat>
          </timing>
        </dosage>
      </MedicationStatement>
    </resource>
    <search>
      <mode value="match"/>
    </search>
  </entry>
  <entry>
    <fullUrl value="http://hapi.fhir.org/baseR4/MedicationStatement/1142761"/>
    <resource>
      <MedicationStatement>
        <id value="1142761"/>
        <meta>
          <versionId value="1"/>
          <lastUpdated value="2020-05-02T05:29:32.140+00:00"/>
          <source value="#sZFJsdG0tHKPl2Cj"/>
        </meta>
        <text>
          <status value="generated"/>
          <div>lisinopril 20mg mane</div>
        </text>
        <status value="active"/>
        <medicationCodeableConcept>
          <coding>
            <system value="http://snomed.info/ct"/>
            <code value="318860005"/>
            <display value="lisinopril 20mg"/>
          </coding>
          <text value="lisinopril 20mg"/>
        </medicationCodeableConcept>
        <subject>
          <reference value="Patient/1142691"/>
        </subject>
        <dosage>
          <text value="once daily"/>
          <timing>
            <repeat>
              <frequency value="1"/>
              <period value="1"/>
              <periodUnit value="d"/>
            </repeat>
          </timing>
        </dosage>
      </MedicationStatement>
    </resource>
    <search>
      <mode value="match"/>
    </search>
  </entry>
  <entry>
    <fullUrl value="http://hapi.fhir.org/baseR4/MedicationStatement/1142750"/>
    <resource>
      <MedicationStatement>
        <id value="1142750"/>
        <meta>
          <versionId value="1"/>
          <lastUpdated value="2020-05-02T05:29:32.140+00:00"/>
          <source value="#sZFJsdG0tHKPl2Cj"/>
        </meta>
        <text>
          <status value="generated"/>
          <div>citalopram 20 mg once daily</div>
        </text>
        <status value="active"/>
        <medicationCodeableConcept>
          <coding>
            <system value="http://snomed.info/ct"/>
            <code value="321987003"/>
            <display value="citalopram 20 mg"/>
          </coding>
          <text value="citalopram 20 mg"/>
        </medicationCodeableConcept>
        <subject>
          <reference value="Patient/1142691"/>
        </subject>
        <dosage>
          <text value="once daily"/>
          <timing>
            <repeat>
              <frequency value="1"/>
              <period value="1"/>
              <periodUnit value="d"/>
            </repeat>
          </timing>
        </dosage>
      </MedicationStatement>
    </resource>
    <search>
      <mode value="match"/>
    </search>
  </entry>
  <entry>
    <fullUrl value="http://hapi.fhir.org/baseR4/MedicationStatement/1142760"/>
    <resource>
      <MedicationStatement>
        <id value="1142760"/>
        <meta>
          <versionId value="1"/>
          <lastUpdated value="2020-05-02T05:29:32.140+00:00"/>
          <source value="#sZFJsdG0tHKPl2Cj"/>
        </meta>
        <text>
          <status value="generated"/>
          <div>zolpidem 5mg sublingual tablet, 1 nocte</div>
        </text>
        <status value="active"/>
        <medicationCodeableConcept>
          <coding>
            <system value="http://snomed.info/ct"/>
            <code value="442160008"/>
            <display value="zolpidem 5mg sublingual tablet"/>
          </coding>
          <text value="zolpidem 5mg sublingual tablet"/>
        </medicationCodeableConcept>
        <subject>
          <reference value="Patient/1142691"/>
        </subject>
        <dosage>
          <text value="1 tab before bed"/>
          <timing>
            <repeat>
              <frequency value="1"/>
              <period value="1"/>
              <periodUnit value="d"/>
            </repeat>
          </timing>
        </dosage>
      </MedicationStatement>
    </resource>
    <search>
      <mode value="match"/>
    </search>
  </entry>
  <entry>
    <fullUrl value="http://hapi.fhir.org/baseR4/MedicationStatement/1142755"/>
    <resource>
      <MedicationStatement>
        <id value="1142755"/>
        <meta>
          <versionId value="1"/>
          <lastUpdated value="2020-05-02T05:29:32.140+00:00"/>
          <source value="#sZFJsdG0tHKPl2Cj"/>
        </meta>
        <text>
          <status value="generated"/>
          <div>naproxen 500mg twice daily</div>
        </text>
        <status value="active"/>
        <medicationCodeableConcept>
          <coding>
            <system value="http://snomed.info/ct"/>
            <code value="329839005"/>
            <display value="naproxen 500mg e/c tablet"/>
          </coding>
          <text value="naproxen 500mg e/c tablet"/>
        </medicationCodeableConcept>
        <subject>
          <reference value="Patient/1142691"/>
        </subject>
        <dosage>
          <text value="1 tab twice daily"/>
          <timing>
            <repeat>
              <frequency value="2"/>
              <period value="1"/>
              <periodUnit value="d"/>
            </repeat>
          </timing>
        </dosage>
      </MedicationStatement>
    </resource>
    <search>
      <mode value="match"/>
    </search>
  </entry>
  <entry>
    <fullUrl value="http://hapi.fhir.org/baseR4/MedicationStatement/1142754"/>
    <resource>
      <MedicationStatement>
        <id value="1142754"/>
        <meta>
          <versionId value="1"/>
          <lastUpdated value="2020-05-02T05:29:32.140+00:00"/>
          <source value="#sZFJsdG0tHKPl2Cj"/>
        </meta>
        <text>
          <status value="generated"/>
          <div>metformin 1000mg twice daily</div>
        </text>
        <status value="active"/>
        <medicationCodeableConcept>
          <coding>
            <system value="http://snomed.info/ct"/>
            <code value="411533003"/>
            <display value="metformin 1000mg"/>
          </coding>
          <text value="metformin 1000mg"/>
        </medicationCodeableConcept>
        <subject>
          <reference value="Patient/1142691"/>
        </subject>
        <dosage>
          <text value="1 tab twice daily"/>
          <timing>
            <repeat>
              <frequency value="2"/>
              <period value="1"/>
              <periodUnit value="d"/>
            </repeat>
          </timing>
        </dosage>
      </MedicationStatement>
    </resource>
    <search>
      <mode value="match"/>
    </search>
  </entry>
  <entry>
    <fullUrl value="http://hapi.fhir.org/baseR4/MedicationStatement/1142753"/>
    <resource>
      <MedicationStatement>
        <id value="1142753"/>
        <meta>
          <versionId value="1"/>
          <lastUpdated value="2020-05-02T05:29:32.140+00:00"/>
          <source value="#sZFJsdG0tHKPl2Cj"/>
        </meta>
        <text>
          <status value="generated"/>
          <div>losartan 100mg + hydrochlorothiazide 12.5mg once daily</div>
        </text>
        <status value="active"/>
        <medicationCodeableConcept>
          <coding>
            <system value="http://snomed.info/ct"/>
            <code value="444639002"/>
            <display value="losartan 100mg + hydrochlorothiazide 12.5mg"/>
          </coding>
          <text value="losartan 100mg + hydrochlorothiazide 12.5mg"/>
        </medicationCodeableConcept>
        <subject>
          <reference value="Patient/1142691"/>
        </subject>
        <dosage>
          <text value="once daily"/>
          <timing>
            <repeat>
              <frequency value="1"/>
              <period value="1"/>
              <periodUnit value="d"/>
            </repeat>
          </timing>
        </dosage>
      </MedicationStatement>
    </resource>
    <search>
      <mode value="match"/>
    </search>
  </entry>
  <entry>
    <fullUrl value="http://hapi.fhir.org/baseR4/MedicationStatement/1142763"/>
    <resource>
      <MedicationStatement>
        <id value="1142763"/>
        <meta>
          <versionId value="1"/>
          <lastUpdated value="2020-05-02T05:29:32.140+00:00"/>
          <source value="#sZFJsdG0tHKPl2Cj"/>
        </meta>
        <status value="active"/>
        <medicationCodeableConcept>
          <coding>
            <system value="http://snomed.info/ct"/>
            <code value="321323009"/>
            <display value="buspirone 5mg"/>
          </coding>
        </medicationCodeableConcept>
        <subject>
          <reference value="Patient/1142691"/>
        </subject>
        <dosage>
          <text value="3 times daily"/>
          <timing>
            <repeat>
              <frequency value="3"/>
              <period value="1"/>
              <periodUnit value="d"/>
            </repeat>
          </timing>
        </dosage>
      </MedicationStatement>
    </resource>
    <search>
      <mode value="match"/>
    </search>
  </entry>
  <entry>
    <fullUrl value="http://hapi.fhir.org/baseR4/MedicationStatement/1142752"/>
    <resource>
      <MedicationStatement>
        <id value="1142752"/>
        <meta>
          <versionId value="1"/>
          <lastUpdated value="2020-05-02T05:29:32.140+00:00"/>
          <source value="#sZFJsdG0tHKPl2Cj"/>
        </meta>
        <text>
          <status value="generated"/>
          <div>insulin glargine 100units/mL 28 units nocte</div>
        </text>
        <status value="active"/>
        <medicationCodeableConcept>
          <coding>
            <system value="http://snomed.info/ct"/>
            <code value="400847007"/>
            <display value="insulin glargine 100units/mL injection"/>
          </coding>
          <text value="insulin glargine 100units/mL injection"/>
        </medicationCodeableConcept>
        <subject>
          <reference value="Patient/1142691"/>
        </subject>
        <dosage>
          <text value="28 units before bed"/>
          <timing>
            <repeat>
              <frequency value="1"/>
              <period value="1"/>
              <periodUnit value="d"/>
            </repeat>
          </timing>
        </dosage>
      </MedicationStatement>
    </resource>
    <search>
      <mode value="match"/>
    </search>
  </entry>
  <entry>
    <fullUrl value="http://hapi.fhir.org/baseR4/MedicationStatement/1142759"/>
    <resource>
      <MedicationStatement>
        <id value="1142759"/>
        <meta>
          <versionId value="1"/>
          <lastUpdated value="2020-05-02T05:29:32.140+00:00"/>
          <source value="#sZFJsdG0tHKPl2Cj"/>
        </meta>
        <text>
          <status value="generated"/>
          <div>terbinafine 250mg once daily</div>
        </text>
        <status value="active"/>
        <medicationCodeableConcept>
          <coding>
            <system value="http://snomed.info/ct"/>
            <code value="324718007"/>
            <display value="terbinafine 250mg"/>
          </coding>
          <text value="terbinafine 250mg"/>
        </medicationCodeableConcept>
        <subject>
          <reference value="Patient/1142691"/>
        </subject>
        <dosage>
          <text value="1 tab once daily"/>
          <timing>
            <repeat>
              <frequency value="1"/>
              <period value="1"/>
              <periodUnit value="d"/>
            </repeat>
          </timing>
          <asNeededBoolean value="true"/>
        </dosage>
      </MedicationStatement>
    </resource>
    <search>
      <mode value="match"/>
    </search>
  </entry>
  <entry>
    <fullUrl value="http://hapi.fhir.org/baseR4/MedicationStatement/1142748"/>
    <resource>
      <MedicationStatement>
        <id value="1142748"/>
        <meta>
          <versionId value="1"/>
          <lastUpdated value="2020-05-02T05:29:32.140+00:00"/>
          <source value="#sZFJsdG0tHKPl2Cj"/>
        </meta>
        <text>
          <status value="generated"/>
          <div>carvedilol 25 mg twice daily</div>
        </text>
        <status value="active"/>
        <medicationCodeableConcept>
          <coding>
            <system value="http://snomed.info/ct"/>
            <code value="318632005"/>
            <display value="carvedilol 25 mg"/>
          </coding>
          <text value="carvedilol 25 mg"/>
        </medicationCodeableConcept>
        <subject>
          <reference value="Patient/1142691"/>
        </subject>
        <dosage>
          <text value="twice daily"/>
          <timing>
            <repeat>
              <frequency value="2"/>
              <period value="1"/>
              <periodUnit value="d"/>
            </repeat>
          </timing>
        </dosage>
      </MedicationStatement>
    </resource>
    <search>
      <mode value="match"/>
    </search>
  </entry>
  <entry>
    <fullUrl value="http://hapi.fhir.org/baseR4/MedicationStatement/1142758"/>
    <resource>
      <MedicationStatement>
        <id value="1142758"/>
        <meta>
          <versionId value="1"/>
          <lastUpdated value="2020-05-02T05:29:32.140+00:00"/>
          <source value="#sZFJsdG0tHKPl2Cj"/>
        </meta>
        <text>
          <status value="generated"/>
          <div>simvastatin 40mg once daily</div>
        </text>
        <status value="active"/>
        <medicationCodeableConcept>
          <coding>
            <system value="http://snomed.info/ct"/>
            <code value="429374003"/>
            <display value="simvastatin 40mg"/>
          </coding>
          <text value="simvastatin 40mg"/>
        </medicationCodeableConcept>
        <subject>
          <reference value="Patient/1142691"/>
        </subject>
        <dosage>
          <text value="1 tab once daily"/>
          <timing>
            <repeat>
              <frequency value="1"/>
              <period value="1"/>
              <periodUnit value="d"/>
            </repeat>
          </timing>
          <asNeededBoolean value="true"/>
        </dosage>
      </MedicationStatement>
    </resource>
    <search>
      <mode value="match"/>
    </search>
  </entry>
  <entry>
    <fullUrl value="http://hapi.fhir.org/baseR4/MedicationStatement/1142747"/>
    <resource>
      <MedicationStatement>
        <id value="1142747"/>
        <meta>
          <versionId value="1"/>
          <lastUpdated value="2020-05-02T05:29:32.140+00:00"/>
          <source value="#sZFJsdG0tHKPl2Cj"/>
        </meta>
        <text>
          <status value="generated"/>
          <div>beclomethasone 2 puffs twice daily</div>
        </text>
        <status value="active"/>
        <medicationCodeableConcept>
          <coding>
            <system value="http://snomed.info/ct"/>
            <code value="376733004"/>
            <display value="beclomethasone dipropionate 40mcg aerosol"/>
          </coding>
          <text value="beclomethasone dipropionate 40mcg aerosol"/>
        </medicationCodeableConcept>
        <subject>
          <reference value="Patient/1142691"/>
        </subject>
        <dosage>
          <text value="2 puffs twice daily"/>
          <timing>
            <repeat>
              <frequency value="2"/>
              <period value="1"/>
              <periodUnit value="d"/>
            </repeat>
          </timing>
          <asNeededBoolean value="false"/>
        </dosage>
      </MedicationStatement>
    </resource>
    <search>
      <mode value="match"/>
    </search>
  </entry>
  <entry>
    <fullUrl value="http://hapi.fhir.org/baseR4/MedicationStatement/1142757"/>
    <resource>
      <MedicationStatement>
        <id value="1142757"/>
        <meta>
          <versionId value="1"/>
          <lastUpdated value="2020-05-02T05:29:32.140+00:00"/>
          <source value="#sZFJsdG0tHKPl2Cj"/>
        </meta>
        <text>
          <status value="generated"/>
          <div>prednisone 20mg 2 tabs/day</div>
        </text>
        <status value="active"/>
        <medicationCodeableConcept>
          <coding>
            <system value="http://snomed.info/ct"/>
            <code value="325456002"/>
            <display value="prednisone 20mg"/>
          </coding>
          <text value="prednisone 20mg"/>
        </medicationCodeableConcept>
        <subject>
          <reference value="Patient/1142691"/>
        </subject>
        <dosage>
          <text value="2 tabs once daily"/>
          <timing>
            <repeat>
              <frequency value="1"/>
              <period value="1"/>
              <periodUnit value="d"/>
            </repeat>
          </timing>
          <asNeededBoolean value="true"/>
        </dosage>
      </MedicationStatement>
    </resource>
    <search>
      <mode value="match"/>
    </search>
  </entry>
  <entry>
    <fullUrl value="http://hapi.fhir.org/baseR4/Patient/1142976"/>
    <resource>
      <Patient>
        <id value="1142976"/>
        <meta>
          <versionId value="1"/>
          <lastUpdated value="2020-05-03T21:52:45.439+00:00"/>
          <source value="#Ks2F9be8gmSDXhxM"/>
          <profile value="https://www.medizininformatik-initiative.de/fhir/core/StructureDefinition/Patient"/>
        </meta>
        <text>
          <status value="generated"/>
          <div>
            <div class="hapiHeaderText">John Q 
                     <b>DEVDAYS2015 </b>
                  </div>
            <table class="hapiPropertyTable">
              <tbody>
                <tr>
                  <td>Identifier</td>
                  <td>1234567</td>
                </tr>
                <tr>
                  <td>Date of birth</td>
                  <td>
                    <span>18 November 2015</span>
                  </td>
                </tr>
              </tbody>
            </table>
          </div>
        </text>
        <identifier>
          <system value="http://acme.org/mrn"/>
          <value value="1234567"/>
        </identifier>
        <name>
          <family value="DevDays2015"/>
          <given value="John"/>
          <given value="Q"/>
        </name>
        <gender value="male"/>
        <birthDate value="2015-11-18"/>
      </Patient>
    </resource>
    <search>
      <mode value="include"/>
    </search>
  </entry>
  <entry>
    <fullUrl value="http://hapi.fhir.org/baseR4/Patient/1142992"/>
    <resource>
      <Patient>
        <id value="1142992"/>
        <meta>
          <versionId value="1"/>
          <lastUpdated value="2020-05-03T22:13:17.016+00:00"/>
          <source value="#NzyoiIAvoZO6OVsY"/>
          <profile value="https://www.medizininformatik-initiative.de/fhir/core/StructureDefinition/Patient"/>
        </meta>
        <text>
          <status value="generated"/>
          <div>
            <div class="hapiHeaderText">John Q 
                     <b>DEVDAYS2015 </b>
                  </div>
            <table class="hapiPropertyTable">
              <tbody>
                <tr>
                  <td>Identifier</td>
                  <td>1234567</td>
                </tr>
                <tr>
                  <td>Date of birth</td>
                  <td>
                    <span>18 November 2015</span>
                  </td>
                </tr>
              </tbody>
            </table>
          </div>
        </text>
        <identifier>
          <system value="http://acme.org/mrn"/>
          <value value="1234567"/>
        </identifier>
        <name>
          <family value="DevDays2015"/>
          <given value="John"/>
          <given value="Q"/>
        </name>
        <gender value="male"/>
        <birthDate value="2015-11-18"/>
      </Patient>
    </resource>
    <search>
      <mode value="include"/>
    </search>
  </entry>
  <entry>
    <fullUrl value="http://hapi.fhir.org/baseR4/Patient/1142691"/>
    <resource>
      <Patient>
        <id value="1142691"/>
        <meta>
          <versionId value="1"/>
          <lastUpdated value="2020-05-02T05:29:19.144+00:00"/>
          <source value="#5ns9a0hGEo00xuXr"/>
        </meta>
        <text>
          <status value="generated"/>
          <div>Jacob Wright</div>
        </text>
        <identifier>
          <system value="http://clinfhir.com/fhir/NamingSystem/identifier"/>
          <value value="FF0001"/>
        </identifier>
        <name>
          <use value="official"/>
          <text value="Jacob Wright"/>
          <family value="Wright"/>
          <given value="Jacob"/>
        </name>
        <gender value="male"/>
        <birthDate value="2001-01-01"/>
      </Patient>
    </resource>
    <search>
      <mode value="include"/>
    </search>
  </entry>
  <entry>
    <fullUrl value="http://hapi.fhir.org/baseR4/Patient/1142980"/>
    <resource>
      <Patient>
        <id value="1142980"/>
        <meta>
          <versionId value="1"/>
          <lastUpdated value="2020-05-03T22:02:23.591+00:00"/>
          <source value="#Ydc5wAaxvPJVvYSX"/>
          <profile value="https://www.medizininformatik-initiative.de/fhir/core/StructureDefinition/Patient"/>
        </meta>
        <text>
          <status value="generated"/>
          <div>
            <div class="hapiHeaderText">John Q 
                     <b>DEVDAYS2015 </b>
                  </div>
            <table class="hapiPropertyTable">
              <tbody>
                <tr>
                  <td>Identifier</td>
                  <td>1234567</td>
                </tr>
                <tr>
                  <td>Date of birth</td>
                  <td>
                    <span>18 November 2015</span>
                  </td>
                </tr>
              </tbody>
            </table>
          </div>
        </text>
        <identifier>
          <system value="http://acme.org/mrn"/>
          <value value="1234567"/>
        </identifier>
        <name>
          <family value="DevDays2015"/>
          <given value="John"/>
          <given value="Q"/>
        </name>
        <gender value="male"/>
        <birthDate value="2015-11-18"/>
      </Patient>
    </resource>
    <search>
      <mode value="include"/>
    </search>
  </entry>
  <entry>
    <fullUrl value="http://hapi.fhir.org/baseR4/Patient/1142984"/>
    <resource>
      <Patient>
        <id value="1142984"/>
        <meta>
          <versionId value="1"/>
          <lastUpdated value="2020-05-03T22:09:56.794+00:00"/>
          <source value="#SZxvLNdo1ckNxlof"/>
          <profile value="https://www.medizininformatik-initiative.de/fhir/core/StructureDefinition/Patient"/>
        </meta>
        <text>
          <status value="generated"/>
          <div>
            <div class="hapiHeaderText">John Q 
                     <b>DEVDAYS2015 </b>
                  </div>
            <table class="hapiPropertyTable">
              <tbody>
                <tr>
                  <td>Identifier</td>
                  <td>1234567</td>
                </tr>
                <tr>
                  <td>Date of birth</td>
                  <td>
                    <span>18 November 2015</span>
                  </td>
                </tr>
              </tbody>
            </table>
          </div>
        </text>
        <identifier>
          <system value="http://acme.org/mrn"/>
          <value value="1234567"/>
        </identifier>
        <name>
          <family value="DevDays2015"/>
          <given value="John"/>
          <given value="Q"/>
        </name>
        <gender value="male"/>
        <birthDate value="2015-11-18"/>
      </Patient>
    </resource>
    <search>
      <mode value="include"/>
    </search>
  </entry>
  <entry>
    <fullUrl value="http://hapi.fhir.org/baseR4/Patient/921330"/>
    <resource>
      <Patient>
        <id value="921330"/>
        <meta>
          <versionId value="2"/>
          <lastUpdated value="2020-03-30T17:58:19.882+00:00"/>
          <source value="#YNpvwJj1mhGB9Du0"/>
        </meta>
        <text>
          <status value="generated"/>
          <div>
            <div class="hapiHeaderText">John 
                     <b>SNOW </b>
                  </div>
            <table class="hapiPropertyTable">
              <tbody/>
            </table>
          </div>
        </text>
        <name>
          <family value="Snow"/>
          <given value="John"/>
        </name>
        <birthDate value="2001-12-14"/>
      </Patient>
    </resource>
    <search>
      <mode value="include"/>
    </search>
  </entry>
</Bundle>
