<?xml version="1.0" encoding="UTF-8"?>
<Bundle>
  <id value="15792624-5f41-4e1b-89cd-99bb6d64f628"/>
  <meta>
    <lastUpdated value="2020-05-31T19:18:49.635+00:00"/>
  </meta>
  <type value="searchset"/>
  <link>
    <relation value="self"/>
    <url value="http://hapi.fhir.org/baseR4?_getpages=15792624-5f41-4e1b-89cd-99bb6d64f628&amp;_getpagesoffset=1120&amp;_count=20&amp;_format=xml&amp;_pretty=true&amp;_bundletype=searchset"/>
  </link>
  <link>
    <relation value="next"/>
    <url value="http://hapi.fhir.org/baseR4?_getpages=15792624-5f41-4e1b-89cd-99bb6d64f628&amp;_getpagesoffset=1140&amp;_count=20&amp;_format=xml&amp;_pretty=true&amp;_bundletype=searchset"/>
  </link>
  <link>
    <relation value="previous"/>
    <url value="http://hapi.fhir.org/baseR4?_getpages=15792624-5f41-4e1b-89cd-99bb6d64f628&amp;_getpagesoffset=1100&amp;_count=20&amp;_format=xml&amp;_pretty=true&amp;_bundletype=searchset"/>
  </link>
  <entry>
    <fullUrl value="http://hapi.fhir.org/baseR4/MedicationStatement/1093962"/>
    <resource>
      <MedicationStatement>
        <id value="1093962"/>
        <meta>
          <versionId value="1"/>
          <lastUpdated value="2020-04-03T08:55:08.577+00:00"/>
          <source value="#NEeAkcLJqdQjQxvu"/>
        </meta>
        <status value="active"/>
        <medicationReference>
          <reference value="Patient/example"/>
        </medicationReference>
        <subject>
          <reference value="Patient/example"/>
        </subject>
      </MedicationStatement>
    </resource>
    <search>
      <mode value="match"/>
    </search>
  </entry>
  <entry>
    <fullUrl value="http://hapi.fhir.org/baseR4/MedicationStatement/1093960"/>
    <resource>
      <MedicationStatement>
        <id value="1093960"/>
        <meta>
          <versionId value="1"/>
          <lastUpdated value="2020-04-03T08:52:42.136+00:00"/>
          <source value="#KJsDVhfzaLpNYe1n"/>
        </meta>
        <status value="completed"/>
        <medicationReference>
          <reference value="Patient/example"/>
        </medicationReference>
        <subject>
          <reference value="Patient/example"/>
        </subject>
      </MedicationStatement>
    </resource>
    <search>
      <mode value="match"/>
    </search>
  </entry>
  <entry>
    <fullUrl value="http://hapi.fhir.org/baseR4/MedicationStatement/1093932"/>
    <resource>
      <MedicationStatement>
        <id value="1093932"/>
        <meta>
          <versionId value="1"/>
          <lastUpdated value="2020-04-03T07:24:31.520+00:00"/>
          <source value="#CAI2sIilXjpYUoyD"/>
        </meta>
        <identifier>
          <use value="official"/>
          <system value="http://www.bmc.nl/portal/medstatements"/>
          <value value="12345689"/>
        </identifier>
        <status value="active"/>
        <category>
          <coding>
            <system value="http://terminology.hl7.org/CodeSystem/medication-statement-category"/>
            <code value="inpatient"/>
            <display value="Inpatient"/>
          </coding>
        </category>
        <medicationReference>
          <reference value="Patient/example"/>
        </medicationReference>
        <subject>
          <reference value="Patient/example"/>
          <display value="Donald Duck"/>
        </subject>
        <dateAsserted value="2015-02-22"/>
        <informationSource>
          <reference value="Patient/example"/>
          <display value="Donald Duck"/>
        </informationSource>
        <derivedFrom>
          <reference value="Patient/example"/>
        </derivedFrom>
        <note>
          <text value="Patient indicates they miss the occasional dose"/>
        </note>
        <dosage>
          <sequence value="1"/>
          <text value="1-2 tablets once daily at bedtime as needed for restless legs"/>
          <timing>
            <repeat>
              <frequency value="1"/>
            </repeat>
          </timing>
          <doseAndRate>
            <type>
              <coding>
                <system value="http://terminology.hl7.org/CodeSystem/dose-rate-type"/>
                <code value="ordered"/>
                <display value="Ordered"/>
              </coding>
            </type>
            <doseRange>
              <low>
                <value value="1.0"/>
                <unit value="TAB"/>
                <system value="http://terminology.hl7.org/CodeSystem/v3-orderableDrugForm"/>
                <code value="TAB"/>
              </low>
              <high>
                <value value="2.0"/>
                <unit value="TAB"/>
                <system value="http://terminology.hl7.org/CodeSystem/v3-orderableDrugForm"/>
                <code value="TAB"/>
              </high>
            </doseRange>
          </doseAndRate>
        </dosage>
      </MedicationStatement>
    </resource>
    <search>
      <mode value="match"/>
    </search>
  </entry>
  <entry>
    <fullUrl value="http://hapi.fhir.org/baseR4/MedicationStatement/1093930"/>
    <resource>
      <MedicationStatement>
        <id value="1093930"/>
        <meta>
          <versionId value="2"/>
          <lastUpdated value="2020-04-03T07:24:05.315+00:00"/>
          <source value="#G6TaaYP1uUSMUcN2"/>
        </meta>
        <status value="entered-in-error"/>
        <medicationReference>
          <display value="abc"/>
        </medicationReference>
        <subject>
          <reference value="Patient/example"/>
        </subject>
      </MedicationStatement>
    </resource>
    <search>
      <mode value="match"/>
    </search>
  </entry>
  <entry>
    <fullUrl value="http://hapi.fhir.org/baseR4/MedicationStatement/1093922"/>
    <resource>
      <MedicationStatement>
        <id value="1093922"/>
        <meta>
          <versionId value="1"/>
          <lastUpdated value="2020-04-03T07:03:04.195+00:00"/>
          <source value="#1gW4QW1VxloxoxlK"/>
        </meta>
        <identifier>
          <use value="official"/>
          <system value="http://www.bmc.nl/portal/medstatements"/>
          <value value="12345689"/>
        </identifier>
        <status value="active"/>
        <category>
          <coding>
            <system value="http://terminology.hl7.org/CodeSystem/medication-statement-category"/>
            <code value="inpatient"/>
            <display value="Inpatient"/>
          </coding>
        </category>
        <medicationReference>
          <reference value="Patient/example"/>
        </medicationReference>
        <subject>
          <reference value="Patient/example"/>
          <display value="Donald Duck"/>
        </subject>
        <dateAsserted value="2015-02-22"/>
        <informationSource>
          <reference value="Patient/example"/>
          <display value="Donald Duck"/>
        </informationSource>
        <derivedFrom>
          <reference value="Patient/example"/>
        </derivedFrom>
        <note>
          <text value="Patient indicates they miss the occasional dose"/>
        </note>
        <dosage>
          <sequence value="1"/>
          <text value="1-2 tablets once daily at bedtime as needed for restless legs"/>
          <timing>
            <repeat>
              <frequency value="1"/>
            </repeat>
          </timing>
          <doseAndRate>
            <type>
              <coding>
                <system value="http://terminology.hl7.org/CodeSystem/dose-rate-type"/>
                <code value="ordered"/>
                <display value="Ordered"/>
              </coding>
            </type>
            <doseRange>
              <low>
                <value value="1.0"/>
                <unit value="TAB"/>
                <system value="http://terminology.hl7.org/CodeSystem/v3-orderableDrugForm"/>
                <code value="TAB"/>
              </low>
              <high>
                <value value="2.0"/>
                <unit value="TAB"/>
                <system value="http://terminology.hl7.org/CodeSystem/v3-orderableDrugForm"/>
                <code value="TAB"/>
              </high>
            </doseRange>
          </doseAndRate>
        </dosage>
      </MedicationStatement>
    </resource>
    <search>
      <mode value="match"/>
    </search>
  </entry>
  <entry>
    <fullUrl value="http://hapi.fhir.org/baseR4/MedicationStatement/1093921"/>
    <resource>
      <MedicationStatement>
        <id value="1093921"/>
        <meta>
          <versionId value="1"/>
          <lastUpdated value="2020-04-03T07:02:31.002+00:00"/>
          <source value="#k6pqdC83RHbhLbcC"/>
        </meta>
        <status value="active"/>
        <medicationReference>
          <display value="abc"/>
        </medicationReference>
        <subject>
          <reference value="Patient/example"/>
        </subject>
      </MedicationStatement>
    </resource>
    <search>
      <mode value="match"/>
    </search>
  </entry>
  <entry>
    <fullUrl value="http://hapi.fhir.org/baseR4/MedicationStatement/1093755"/>
    <resource>
      <MedicationStatement>
        <id value="1093755"/>
        <meta>
          <versionId value="1"/>
          <lastUpdated value="2020-04-02T17:55:29.117+00:00"/>
          <source value="#KiTio9SB1wsuRCb4"/>
        </meta>
        <identifier>
          <use value="official"/>
          <system value="http://www.bmc.nl/portal/medstatements"/>
          <value value="12345689"/>
        </identifier>
        <status value="completed"/>
        <category>
          <coding>
            <system value="http://terminology.hl7.org/CodeSystem/medication-statement-category"/>
            <code value="inpatient"/>
            <display value="Inpatient"/>
          </coding>
        </category>
        <medicationReference>
          <reference value="Patient/example"/>
        </medicationReference>
        <subject>
          <reference value="Patient/example"/>
          <display value="Donald Duck"/>
        </subject>
        <dateAsserted value="2015-02-22"/>
        <informationSource>
          <reference value="Patient/example"/>
          <display value="Donald Duck"/>
        </informationSource>
        <derivedFrom>
          <reference value="Patient/example"/>
        </derivedFrom>
        <note>
          <text value="Patient indicates they miss the occasional dose"/>
        </note>
        <dosage>
          <sequence value="1"/>
          <text value="1-2 tablets once daily at bedtime as needed for restless legs"/>
          <timing>
            <repeat>
              <frequency value="1"/>
            </repeat>
          </timing>
          <doseAndRate>
            <type>
              <coding>
                <system value="http://terminology.hl7.org/CodeSystem/dose-rate-type"/>
                <code value="ordered"/>
                <display value="Ordered"/>
              </coding>
            </type>
            <doseRange>
              <low>
                <value value="1.0"/>
                <unit value="TAB"/>
                <system value="http://terminology.hl7.org/CodeSystem/v3-orderableDrugForm"/>
                <code value="TAB"/>
              </low>
              <high>
                <value value="2.0"/>
                <unit value="TAB"/>
                <system value="http://terminology.hl7.org/CodeSystem/v3-orderableDrugForm"/>
                <code value="TAB"/>
              </high>
            </doseRange>
          </doseAndRate>
        </dosage>
      </MedicationStatement>
    </resource>
    <search>
      <mode value="match"/>
    </search>
  </entry>
  <entry>
    <fullUrl value="http://hapi.fhir.org/baseR4/MedicationStatement/1093744"/>
    <resource>
      <MedicationStatement>
        <id value="1093744"/>
        <meta>
          <versionId value="1"/>
          <lastUpdated value="2020-04-02T14:19:12.910+00:00"/>
          <source value="#JPBorZRWA6U8N44G"/>
        </meta>
        <identifier>
          <use value="official"/>
          <system value="http://www.bmc.nl/portal/medstatements"/>
          <value value="12345689"/>
        </identifier>
        <status value="completed"/>
        <category>
          <coding>
            <system value="http://terminology.hl7.org/CodeSystem/medication-statement-category"/>
            <code value="inpatient"/>
            <display value="Inpatient"/>
          </coding>
        </category>
        <medicationReference>
          <reference value="Patient/example"/>
        </medicationReference>
        <subject>
          <reference value="Patient/example"/>
          <display value="Donald Duck"/>
        </subject>
        <dateAsserted value="2015-02-22"/>
        <informationSource>
          <reference value="Patient/example"/>
          <display value="Donald Duck"/>
        </informationSource>
        <derivedFrom>
          <reference value="Patient/example"/>
        </derivedFrom>
        <note>
          <text value="Patient indicates they miss the occasional dose"/>
        </note>
        <dosage>
          <sequence value="1"/>
          <text value="1-2 tablets once daily at bedtime as needed for restless legs"/>
          <timing>
            <repeat>
              <frequency value="1"/>
            </repeat>
          </timing>
          <doseAndRate>
            <type>
              <coding>
                <system value="http://terminology.hl7.org/CodeSystem/dose-rate-type"/>
                <code value="ordered"/>
                <display value="Ordered"/>
              </coding>
            </type>
            <doseRange>
              <low>
                <value value="1.0"/>
                <unit value="TAB"/>
                <system value="http://terminology.hl7.org/CodeSystem/v3-orderableDrugForm"/>
                <code value="TAB"/>
              </low>
              <high>
                <value value="2.0"/>
                <unit value="TAB"/>
                <system value="http://terminology.hl7.org/CodeSystem/v3-orderableDrugForm"/>
                <code value="TAB"/>
              </high>
            </doseRange>
          </doseAndRate>
        </dosage>
      </MedicationStatement>
    </resource>
    <search>
      <mode value="match"/>
    </search>
  </entry>
  <entry>
    <fullUrl value="http://hapi.fhir.org/baseR4/MedicationStatement/1093674"/>
    <resource>
      <MedicationStatement>
        <id value="1093674"/>
        <meta>
          <versionId value="2"/>
          <lastUpdated value="2020-04-02T10:56:55.936+00:00"/>
          <source value="#chbDIYIHjlpwTaxt"/>
        </meta>
        <status value="unknown"/>
        <subject>
          <display value="testcreate"/>
        </subject>
      </MedicationStatement>
    </resource>
    <search>
      <mode value="match"/>
    </search>
  </entry>
  <entry>
    <fullUrl value="http://hapi.fhir.org/baseR4/MedicationStatement/1093672"/>
    <resource>
      <MedicationStatement>
        <id value="1093672"/>
        <meta>
          <versionId value="2"/>
          <lastUpdated value="2020-04-02T10:44:44.857+00:00"/>
          <source value="#llxug5Xo747jqdjI"/>
        </meta>
        <status value="unknown"/>
        <subject>
          <display value="testcreate"/>
        </subject>
      </MedicationStatement>
    </resource>
    <search>
      <mode value="match"/>
    </search>
  </entry>
  <entry>
    <fullUrl value="http://hapi.fhir.org/baseR4/MedicationStatement/1162841"/>
    <resource>
      <MedicationStatement>
        <id value="1162841"/>
        <meta>
          <versionId value="1"/>
          <lastUpdated value="2020-05-08T01:19:25.919+00:00"/>
          <source value="#j4vYUBlsR7xDWnYk"/>
        </meta>
        <text>
          <status value="generated"/>
          <div>losartan 100mg + hydrochlorothiazide 12.5mg once daily</div>
        </text>
        <status value="active"/>
        <medicationCodeableConcept>
          <coding>
            <system value="http://snomed.info/ct"/>
            <code value="444639002"/>
            <display value="losartan 100mg + hydrochlorothiazide 12.5mg"/>
          </coding>
          <text value="losartan 100mg + hydrochlorothiazide 12.5mg"/>
        </medicationCodeableConcept>
        <subject>
          <reference value="Patient/1162779"/>
        </subject>
        <dosage>
          <text value="once daily"/>
          <timing>
            <repeat>
              <frequency value="1"/>
              <period value="1"/>
              <periodUnit value="d"/>
            </repeat>
          </timing>
        </dosage>
      </MedicationStatement>
    </resource>
    <search>
      <mode value="match"/>
    </search>
  </entry>
  <entry>
    <fullUrl value="http://hapi.fhir.org/baseR4/MedicationStatement/1162851"/>
    <resource>
      <MedicationStatement>
        <id value="1162851"/>
        <meta>
          <versionId value="1"/>
          <lastUpdated value="2020-05-08T01:19:25.919+00:00"/>
          <source value="#j4vYUBlsR7xDWnYk"/>
        </meta>
        <status value="active"/>
        <medicationCodeableConcept>
          <coding>
            <system value="http://snomed.info/ct"/>
            <code value="321323009"/>
            <display value="buspirone 5mg"/>
          </coding>
        </medicationCodeableConcept>
        <subject>
          <reference value="Patient/1162779"/>
        </subject>
        <dosage>
          <text value="3 times daily"/>
          <timing>
            <repeat>
              <frequency value="3"/>
              <period value="1"/>
              <periodUnit value="d"/>
            </repeat>
          </timing>
        </dosage>
      </MedicationStatement>
    </resource>
    <search>
      <mode value="match"/>
    </search>
  </entry>
  <entry>
    <fullUrl value="http://hapi.fhir.org/baseR4/MedicationStatement/1162840"/>
    <resource>
      <MedicationStatement>
        <id value="1162840"/>
        <meta>
          <versionId value="1"/>
          <lastUpdated value="2020-05-08T01:19:25.919+00:00"/>
          <source value="#j4vYUBlsR7xDWnYk"/>
        </meta>
        <text>
          <status value="generated"/>
          <div>insulin glargine 100units/mL 28 units nocte</div>
        </text>
        <status value="active"/>
        <medicationCodeableConcept>
          <coding>
            <system value="http://snomed.info/ct"/>
            <code value="400847007"/>
            <display value="insulin glargine 100units/mL injection"/>
          </coding>
          <text value="insulin glargine 100units/mL injection"/>
        </medicationCodeableConcept>
        <subject>
          <reference value="Patient/1162779"/>
        </subject>
        <dosage>
          <text value="28 units before bed"/>
          <timing>
            <repeat>
              <frequency value="1"/>
              <period value="1"/>
              <periodUnit value="d"/>
            </repeat>
          </timing>
        </dosage>
      </MedicationStatement>
    </resource>
    <search>
      <mode value="match"/>
    </search>
  </entry>
  <entry>
    <fullUrl value="http://hapi.fhir.org/baseR4/MedicationStatement/1162850"/>
    <resource>
      <MedicationStatement>
        <id value="1162850"/>
        <meta>
          <versionId value="1"/>
          <lastUpdated value="2020-05-08T01:19:25.919+00:00"/>
          <source value="#j4vYUBlsR7xDWnYk"/>
        </meta>
        <text>
          <status value="generated"/>
          <div>isosorbide mononitrate 20mg once daily</div>
        </text>
        <status value="active"/>
        <medicationCodeableConcept>
          <coding>
            <system value="http://snomed.info/ct"/>
            <code value="319134001"/>
            <display value="isosorbide mononitrate 20mg"/>
          </coding>
          <text value="isosorbide mononitrate 20mg"/>
        </medicationCodeableConcept>
        <subject>
          <reference value="Patient/1162779"/>
        </subject>
        <dosage>
          <text value="once daily at bedtime"/>
          <timing>
            <repeat>
              <frequency value="1"/>
              <period value="1"/>
              <periodUnit value="d"/>
            </repeat>
          </timing>
        </dosage>
      </MedicationStatement>
    </resource>
    <search>
      <mode value="match"/>
    </search>
  </entry>
  <entry>
    <fullUrl value="http://hapi.fhir.org/baseR4/MedicationStatement/1162839"/>
    <resource>
      <MedicationStatement>
        <id value="1162839"/>
        <meta>
          <versionId value="1"/>
          <lastUpdated value="2020-05-08T01:19:25.919+00:00"/>
          <source value="#j4vYUBlsR7xDWnYk"/>
        </meta>
        <text>
          <status value="generated"/>
          <div>gabapentin 600mg twice daily</div>
        </text>
        <status value="active"/>
        <medicationCodeableConcept>
          <coding>
            <system value="http://snomed.info/ct"/>
            <code value="323021008"/>
            <display value="gabapentin 600mg"/>
          </coding>
          <text value="gabapentin 600mg"/>
        </medicationCodeableConcept>
        <subject>
          <reference value="Patient/1162779"/>
        </subject>
        <dosage>
          <text value="twice daily"/>
          <timing>
            <repeat>
              <frequency value="2"/>
              <period value="1"/>
              <periodUnit value="d"/>
            </repeat>
          </timing>
        </dosage>
      </MedicationStatement>
    </resource>
    <search>
      <mode value="match"/>
    </search>
  </entry>
  <entry>
    <fullUrl value="http://hapi.fhir.org/baseR4/MedicationStatement/1162849"/>
    <resource>
      <MedicationStatement>
        <id value="1162849"/>
        <meta>
          <versionId value="1"/>
          <lastUpdated value="2020-05-08T01:19:25.919+00:00"/>
          <source value="#j4vYUBlsR7xDWnYk"/>
        </meta>
        <text>
          <status value="generated"/>
          <div>lisinopril 20mg mane</div>
        </text>
        <status value="active"/>
        <medicationCodeableConcept>
          <coding>
            <system value="http://snomed.info/ct"/>
            <code value="318860005"/>
            <display value="lisinopril 20mg"/>
          </coding>
          <text value="lisinopril 20mg"/>
        </medicationCodeableConcept>
        <subject>
          <reference value="Patient/1162779"/>
        </subject>
        <dosage>
          <text value="once daily"/>
          <timing>
            <repeat>
              <frequency value="1"/>
              <period value="1"/>
              <periodUnit value="d"/>
            </repeat>
          </timing>
        </dosage>
      </MedicationStatement>
    </resource>
    <search>
      <mode value="match"/>
    </search>
  </entry>
  <entry>
    <fullUrl value="http://hapi.fhir.org/baseR4/MedicationStatement/1162838"/>
    <resource>
      <MedicationStatement>
        <id value="1162838"/>
        <meta>
          <versionId value="1"/>
          <lastUpdated value="2020-05-08T01:19:25.919+00:00"/>
          <source value="#j4vYUBlsR7xDWnYk"/>
        </meta>
        <text>
          <status value="generated"/>
          <div>citalopram 20 mg once daily</div>
        </text>
        <status value="active"/>
        <medicationCodeableConcept>
          <coding>
            <system value="http://snomed.info/ct"/>
            <code value="321987003"/>
            <display value="citalopram 20 mg"/>
          </coding>
          <text value="citalopram 20 mg"/>
        </medicationCodeableConcept>
        <subject>
          <reference value="Patient/1162779"/>
        </subject>
        <dosage>
          <text value="once daily"/>
          <timing>
            <repeat>
              <frequency value="1"/>
              <period value="1"/>
              <periodUnit value="d"/>
            </repeat>
          </timing>
        </dosage>
      </MedicationStatement>
    </resource>
    <search>
      <mode value="match"/>
    </search>
  </entry>
  <entry>
    <fullUrl value="http://hapi.fhir.org/baseR4/MedicationStatement/1162848"/>
    <resource>
      <MedicationStatement>
        <id value="1162848"/>
        <meta>
          <versionId value="1"/>
          <lastUpdated value="2020-05-08T01:19:25.919+00:00"/>
          <source value="#j4vYUBlsR7xDWnYk"/>
        </meta>
        <text>
          <status value="generated"/>
          <div>zolpidem 5mg sublingual tablet, 1 nocte</div>
        </text>
        <status value="active"/>
        <medicationCodeableConcept>
          <coding>
            <system value="http://snomed.info/ct"/>
            <code value="442160008"/>
            <display value="zolpidem 5mg sublingual tablet"/>
          </coding>
          <text value="zolpidem 5mg sublingual tablet"/>
        </medicationCodeableConcept>
        <subject>
          <reference value="Patient/1162779"/>
        </subject>
        <dosage>
          <text value="1 tab before bed"/>
          <timing>
            <repeat>
              <frequency value="1"/>
              <period value="1"/>
              <periodUnit value="d"/>
            </repeat>
          </timing>
        </dosage>
      </MedicationStatement>
    </resource>
    <search>
      <mode value="match"/>
    </search>
  </entry>
  <entry>
    <fullUrl value="http://hapi.fhir.org/baseR4/MedicationStatement/1093660"/>
    <resource>
      <MedicationStatement>
        <id value="1093660"/>
        <meta>
          <versionId value="1"/>
          <lastUpdated value="2020-04-02T10:17:12.757+00:00"/>
          <source value="#4OxcfWyGzMX99p4w"/>
        </meta>
        <status value="completed"/>
        <subject>
          <display value="testcreate"/>
        </subject>
      </MedicationStatement>
    </resource>
    <search>
      <mode value="match"/>
    </search>
  </entry>
  <entry>
    <fullUrl value="http://hapi.fhir.org/baseR4/MedicationStatement/1093454"/>
    <resource>
      <MedicationStatement>
        <id value="1093454"/>
        <meta>
          <versionId value="2"/>
          <lastUpdated value="2020-04-02T08:17:16.236+00:00"/>
          <source value="#5bC03ycEJw7z1r8I"/>
        </meta>
        <language value="xyz"/>
        <identifier>
          <use value="official"/>
          <system value="http://www.bmc.nl/portal/medstatements"/>
          <value value="12345689"/>
        </identifier>
        <status value="completed"/>
        <category>
          <coding>
            <system value="http://terminology.hl7.org/CodeSystem/medication-statement-category"/>
            <code value="inpatient"/>
            <display value="Inpatient"/>
          </coding>
        </category>
        <medicationReference>
          <reference value="Patient/example"/>
        </medicationReference>
        <subject>
          <reference value="Patient/example"/>
          <display value="Donald Duck"/>
        </subject>
        <dateAsserted value="2015-02-22"/>
        <informationSource>
          <reference value="Patient/example"/>
          <display value="Donald Duck"/>
        </informationSource>
        <derivedFrom>
          <reference value="Patient/example"/>
        </derivedFrom>
        <note>
          <text value="Patient indicates they miss the occasional dose"/>
        </note>
        <dosage>
          <sequence value="1"/>
          <text value="1-2 tablets once daily at bedtime as needed for restless legs"/>
          <timing>
            <repeat>
              <frequency value="1"/>
            </repeat>
          </timing>
          <doseAndRate>
            <type>
              <coding>
                <system value="http://terminology.hl7.org/CodeSystem/dose-rate-type"/>
                <code value="ordered"/>
                <display value="Ordered"/>
              </coding>
            </type>
            <doseRange>
              <low>
                <value value="1.0"/>
                <unit value="TAB"/>
                <system value="http://terminology.hl7.org/CodeSystem/v3-orderableDrugForm"/>
                <code value="TAB"/>
              </low>
              <high>
                <value value="2.0"/>
                <unit value="TAB"/>
                <system value="http://terminology.hl7.org/CodeSystem/v3-orderableDrugForm"/>
                <code value="TAB"/>
              </high>
            </doseRange>
          </doseAndRate>
        </dosage>
      </MedicationStatement>
    </resource>
    <search>
      <mode value="match"/>
    </search>
  </entry>
  <entry>
    <fullUrl value="http://hapi.fhir.org/baseR4/Patient/1162779"/>
    <resource>
      <Patient>
        <id value="1162779"/>
        <meta>
          <versionId value="1"/>
          <lastUpdated value="2020-05-08T01:19:19.825+00:00"/>
          <source value="#s2MeWVt8PnJiiISY"/>
        </meta>
        <text>
          <status value="generated"/>
          <div>John Doe</div>
        </text>
        <name>
          <use value="official"/>
          <text value="John Doe"/>
          <family value="Doe"/>
          <given value="John"/>
        </name>
        <gender value="male"/>
        <birthDate value="1970-01-10"/>
      </Patient>
    </resource>
    <search>
      <mode value="include"/>
    </search>
  </entry>
  <entry>
    <fullUrl value="http://hapi.fhir.org/baseR4/Patient/example"/>
    <resource>
      <Patient>
        <id value="example"/>
        <meta>
          <versionId value="19"/>
          <lastUpdated value="2020-03-18T04:55:58.137+00:00"/>
          <source value="#jQd948eABxSzPSEK"/>
        </meta>
        <text>
          <status value="generated"/>
          <div>
            <table>
              <tbody>
                <tr>
                  <td>Name</td>
                  <td>Peter James 
                              <b>Chalmers</b> ("Jim") 
                           </td>
                </tr>
                <tr>
                  <td>Address</td>
                  <td>534 Erewhon, Pleasantville, Vic, 3999</td>
                </tr>
                <tr>
                  <td>Contacts</td>
                  <td>Home: unknown. Work: (03) 5555 6473</td>
                </tr>
                <tr>
                  <td>Id</td>
                  <td>MRN: 12345 (Acme Healthcare)</td>
                </tr>
              </tbody>
            </table>
          </div>
        </text>
        <identifier>
          <use value="usual"/>
          <type>
            <coding>
              <system value="http://terminology.hl7.org/CodeSystem/v2-0203"/>
              <code value="MR"/>
            </coding>
          </type>
          <system value="urn:oid:1.2.36.146.595.217.0.1"/>
          <value value="12345"/>
          <period>
            <start value="2001-05-06"/>
          </period>
          <assigner>
            <display value="Acne Healthcare"/>
          </assigner>
        </identifier>
        <active value="true"/>
        <name>
          <use value="official"/>
          <family value="Chalmers"/>
          <given value="Peter"/>
          <given value="James"/>
        </name>
        <name>
          <use value="usual"/>
          <given value="Jim"/>
        </name>
        <name>
          <use value="maiden"/>
          <family value="Windsor"/>
          <given value="Peter"/>
          <given value="James"/>
          <period>
            <end value="2002"/>
          </period>
        </name>
        <telecom>
          <use value="home"/>
        </telecom>
        <telecom>
          <system value="phone"/>
          <value value="(03) 5555 6473"/>
          <use value="work"/>
          <rank value="1"/>
        </telecom>
        <telecom>
          <system value="phone"/>
          <value value="(03) 3410 5613"/>
          <use value="mobile"/>
          <rank value="2"/>
        </telecom>
        <telecom>
          <system value="phone"/>
          <value value="(03) 5555 8834"/>
          <use value="old"/>
          <period>
            <end value="2014"/>
          </period>
        </telecom>
        <gender value="male"/>
        <birthDate value="1974-12-25">
          <extension url="http://hl7.org/fhir/StructureDefinition/patient-birthTime">
            <valueDateTime value="1974-12-25T14:35:45-05:00"/>
          </extension>
        </birthDate>
        <deceasedBoolean value="false"/>
        <address>
          <use value="home"/>
          <type value="both"/>
          <text value="534 Erewhon St PeasantVille, Rainbow, Vic  3999"/>
          <line value="534 Erewhon St"/>
          <city value="PleasantVille"/>
          <district value="Rainbow"/>
          <state value="Vic"/>
          <postalCode value="3999"/>
          <period>
            <start value="1974-12-25"/>
          </period>
        </address>
        <contact>
          <relationship>
            <coding>
              <system value="http://terminology.hl7.org/CodeSystem/v2-0131"/>
              <code value="N"/>
            </coding>
          </relationship>
          <name>
            <family value="du Marché">
              <extension url="http://hl7.org/fhir/StructureDefinition/humanname-own-prefix">
                <valueString value="VV"/>
              </extension>
            </family>
            <given value="Bénédicte"/>
          </name>
          <telecom>
            <system value="phone"/>
            <value value="+33 (237) 998327"/>
          </telecom>
          <address>
            <use value="home"/>
            <type value="both"/>
            <line value="534 Erewhon St"/>
            <city value="PleasantVille"/>
            <district value="Rainbow"/>
            <state value="Vic"/>
            <postalCode value="3999"/>
            <period>
              <start value="1974-12-25"/>
            </period>
          </address>
          <gender value="female"/>
          <period>
            <start value="2012"/>
          </period>
        </contact>
      </Patient>
    </resource>
    <search>
      <mode value="include"/>
    </search>
  </entry>
</Bundle>
