<?xml version="1.0" encoding="UTF-8"?>
<Bundle>
  <id value="15792624-5f41-4e1b-89cd-99bb6d64f628"/>
  <meta>
    <lastUpdated value="2020-05-31T19:18:49.635+00:00"/>
  </meta>
  <type value="searchset"/>
  <link>
    <relation value="self"/>
    <url value="http://hapi.fhir.org/baseR4?_getpages=15792624-5f41-4e1b-89cd-99bb6d64f628&amp;_getpagesoffset=1160&amp;_count=20&amp;_format=xml&amp;_pretty=true&amp;_bundletype=searchset"/>
  </link>
  <link>
    <relation value="next"/>
    <url value="http://hapi.fhir.org/baseR4?_getpages=15792624-5f41-4e1b-89cd-99bb6d64f628&amp;_getpagesoffset=1180&amp;_count=20&amp;_format=xml&amp;_pretty=true&amp;_bundletype=searchset"/>
  </link>
  <link>
    <relation value="previous"/>
    <url value="http://hapi.fhir.org/baseR4?_getpages=15792624-5f41-4e1b-89cd-99bb6d64f628&amp;_getpagesoffset=1140&amp;_count=20&amp;_format=xml&amp;_pretty=true&amp;_bundletype=searchset"/>
  </link>
  <entry>
    <fullUrl value="http://hapi.fhir.org/baseR4/MedicationStatement/1092391"/>
    <resource>
      <MedicationStatement>
        <id value="1092391"/>
        <meta>
          <versionId value="2"/>
          <lastUpdated value="2020-04-01T08:39:05.115+00:00"/>
          <source value="#ybBbYWNUQA6rmC2h"/>
        </meta>
        <status value="entered-in-error"/>
        <medicationReference>
          <display value="abc"/>
        </medicationReference>
        <subject>
          <reference value="Patient/example"/>
        </subject>
      </MedicationStatement>
    </resource>
    <search>
      <mode value="match"/>
    </search>
  </entry>
  <entry>
    <fullUrl value="http://hapi.fhir.org/baseR4/MedicationStatement/1092363"/>
    <resource>
      <MedicationStatement>
        <id value="1092363"/>
        <meta>
          <versionId value="1"/>
          <lastUpdated value="2020-04-01T07:06:04.360+00:00"/>
          <source value="#MHciuulD8C9B0u7M"/>
        </meta>
        <identifier>
          <use value="official"/>
          <system value="http://www.bmc.nl/portal/medstatements"/>
          <value value="12345689"/>
        </identifier>
        <status value="active"/>
        <category>
          <coding>
            <system value="http://terminology.hl7.org/CodeSystem/medication-statement-category"/>
            <code value="inpatient"/>
            <display value="Inpatient"/>
          </coding>
        </category>
        <medicationReference>
          <reference value="Patient/example"/>
        </medicationReference>
        <subject>
          <reference value="Patient/example"/>
          <display value="Donald Duck"/>
        </subject>
        <dateAsserted value="2015-02-22"/>
        <informationSource>
          <reference value="Patient/example"/>
          <display value="Donald Duck"/>
        </informationSource>
        <derivedFrom>
          <reference value="Patient/example"/>
        </derivedFrom>
        <note>
          <text value="Patient indicates they miss the occasional dose"/>
        </note>
        <dosage>
          <sequence value="1"/>
          <text value="1-2 tablets once daily at bedtime as needed for restless legs"/>
          <timing>
            <repeat>
              <frequency value="1"/>
            </repeat>
          </timing>
          <doseAndRate>
            <type>
              <coding>
                <system value="http://terminology.hl7.org/CodeSystem/dose-rate-type"/>
                <code value="ordered"/>
                <display value="Ordered"/>
              </coding>
            </type>
            <doseRange>
              <low>
                <value value="1.0"/>
                <unit value="TAB"/>
                <system value="http://terminology.hl7.org/CodeSystem/v3-orderableDrugForm"/>
                <code value="TAB"/>
              </low>
              <high>
                <value value="2.0"/>
                <unit value="TAB"/>
                <system value="http://terminology.hl7.org/CodeSystem/v3-orderableDrugForm"/>
                <code value="TAB"/>
              </high>
            </doseRange>
          </doseAndRate>
        </dosage>
      </MedicationStatement>
    </resource>
    <search>
      <mode value="match"/>
    </search>
  </entry>
  <entry>
    <fullUrl value="http://hapi.fhir.org/baseR4/MedicationStatement/1092360"/>
    <resource>
      <MedicationStatement>
        <id value="1092360"/>
        <meta>
          <versionId value="2"/>
          <lastUpdated value="2020-04-01T07:05:52.376+00:00"/>
          <source value="#aQ2ZiGKHBao6uGOU"/>
        </meta>
        <status value="entered-in-error"/>
        <medicationReference>
          <display value="abc"/>
        </medicationReference>
        <subject>
          <reference value="Patient/example"/>
        </subject>
      </MedicationStatement>
    </resource>
    <search>
      <mode value="match"/>
    </search>
  </entry>
  <entry>
    <fullUrl value="http://hapi.fhir.org/baseR4/MedicationStatement/1092147"/>
    <resource>
      <MedicationStatement>
        <id value="1092147"/>
        <meta>
          <versionId value="2"/>
          <lastUpdated value="2020-03-31T14:41:52.558+00:00"/>
          <source value="#3zNCJ6qIhVXEL0Ns"/>
        </meta>
        <identifier>
          <use value="official"/>
          <system value="http://www.bmc.nl/portal/medstatements"/>
          <value value="12345689"/>
        </identifier>
        <status value="completed"/>
        <category>
          <coding>
            <system value="http://terminology.hl7.org/CodeSystem/medication-statement-category"/>
            <code value="inpatient"/>
            <display value="Inpatient"/>
          </coding>
        </category>
        <medicationReference>
          <reference value="Patient/example"/>
        </medicationReference>
        <subject>
          <reference value="Patient/example"/>
          <display value="Donald Duck"/>
        </subject>
        <dateAsserted value="2015-02-22"/>
        <informationSource>
          <reference value="Patient/example"/>
          <display value="Donald Duck"/>
        </informationSource>
        <derivedFrom>
          <reference value="Patient/example"/>
        </derivedFrom>
        <note>
          <text value="Patient indicates they miss the occasional dose"/>
        </note>
        <dosage>
          <sequence value="1"/>
          <text value="1-2 tablets once daily at bedtime as needed for restless legs"/>
          <timing>
            <repeat>
              <frequency value="1"/>
            </repeat>
          </timing>
          <doseAndRate>
            <type>
              <coding>
                <system value="http://terminology.hl7.org/CodeSystem/dose-rate-type"/>
                <code value="ordered"/>
                <display value="Ordered"/>
              </coding>
            </type>
            <doseRange>
              <low>
                <value value="1.0"/>
                <unit value="TAB"/>
                <system value="http://terminology.hl7.org/CodeSystem/v3-orderableDrugForm"/>
                <code value="TAB"/>
              </low>
              <high>
                <value value="2.0"/>
                <unit value="TAB"/>
                <system value="http://terminology.hl7.org/CodeSystem/v3-orderableDrugForm"/>
                <code value="TAB"/>
              </high>
            </doseRange>
          </doseAndRate>
        </dosage>
      </MedicationStatement>
    </resource>
    <search>
      <mode value="match"/>
    </search>
  </entry>
  <entry>
    <fullUrl value="http://hapi.fhir.org/baseR4/MedicationStatement/1092140"/>
    <resource>
      <MedicationStatement>
        <id value="1092140"/>
        <meta>
          <versionId value="1"/>
          <lastUpdated value="2020-03-31T11:37:51.748+00:00"/>
          <source value="#taJchzPDBqDbQ44p"/>
        </meta>
        <identifier>
          <use value="official"/>
          <system value="http://www.bmc.nl/portal/medstatements"/>
          <value value="12345689"/>
        </identifier>
        <status value="active"/>
        <category>
          <coding>
            <system value="http://terminology.hl7.org/CodeSystem/medication-statement-category"/>
            <code value="inpatient"/>
            <display value="Inpatient"/>
          </coding>
        </category>
        <medicationReference>
          <reference value="Patient/example"/>
        </medicationReference>
        <subject>
          <reference value="Patient/example"/>
          <display value="Donald Duck"/>
        </subject>
        <dateAsserted value="2015-02-22"/>
        <informationSource>
          <reference value="Patient/example"/>
          <display value="Donald Duck"/>
        </informationSource>
        <derivedFrom>
          <reference value="Patient/example"/>
        </derivedFrom>
        <note>
          <text value="Patient indicates they miss the occasional dose"/>
        </note>
        <dosage>
          <sequence value="1"/>
          <text value="1-2 tablets once daily at bedtime as needed for restless legs"/>
          <timing>
            <repeat>
              <frequency value="1"/>
            </repeat>
          </timing>
          <doseAndRate>
            <type>
              <coding>
                <system value="http://terminology.hl7.org/CodeSystem/dose-rate-type"/>
                <code value="ordered"/>
                <display value="Ordered"/>
              </coding>
            </type>
            <doseRange>
              <low>
                <value value="1.0"/>
                <unit value="TAB"/>
                <system value="http://terminology.hl7.org/CodeSystem/v3-orderableDrugForm"/>
                <code value="TAB"/>
              </low>
              <high>
                <value value="2.0"/>
                <unit value="TAB"/>
                <system value="http://terminology.hl7.org/CodeSystem/v3-orderableDrugForm"/>
                <code value="TAB"/>
              </high>
            </doseRange>
          </doseAndRate>
        </dosage>
      </MedicationStatement>
    </resource>
    <search>
      <mode value="match"/>
    </search>
  </entry>
  <entry>
    <fullUrl value="http://hapi.fhir.org/baseR4/MedicationStatement/1092137"/>
    <resource>
      <MedicationStatement>
        <id value="1092137"/>
        <meta>
          <versionId value="1"/>
          <lastUpdated value="2020-03-31T11:34:02.241+00:00"/>
          <source value="#r0EuzTJaNFB4w65r"/>
        </meta>
        <identifier>
          <use value="official"/>
          <system value="http://www.bmc.nl/portal/medstatements"/>
          <value value="12345689"/>
        </identifier>
        <status value="active"/>
        <category>
          <coding>
            <system value="http://terminology.hl7.org/CodeSystem/medication-statement-category"/>
            <code value="inpatient"/>
            <display value="Inpatient"/>
          </coding>
        </category>
        <medicationReference>
          <reference value="Patient/example"/>
        </medicationReference>
        <subject>
          <reference value="Patient/example"/>
          <display value="Donald Duck"/>
        </subject>
        <dateAsserted value="2015-02-22"/>
        <informationSource>
          <reference value="Patient/example"/>
          <display value="Donald Duck"/>
        </informationSource>
        <derivedFrom>
          <reference value="Patient/example"/>
        </derivedFrom>
        <note>
          <text value="Patient indicates they miss the occasional dose"/>
        </note>
        <dosage>
          <sequence value="1"/>
          <text value="1-2 tablets once daily at bedtime as needed for restless legs"/>
          <timing>
            <repeat>
              <frequency value="1"/>
            </repeat>
          </timing>
          <doseAndRate>
            <type>
              <coding>
                <system value="http://terminology.hl7.org/CodeSystem/dose-rate-type"/>
                <code value="ordered"/>
                <display value="Ordered"/>
              </coding>
            </type>
            <doseRange>
              <low>
                <value value="1.0"/>
                <unit value="TAB"/>
                <system value="http://terminology.hl7.org/CodeSystem/v3-orderableDrugForm"/>
                <code value="TAB"/>
              </low>
              <high>
                <value value="2.0"/>
                <unit value="TAB"/>
                <system value="http://terminology.hl7.org/CodeSystem/v3-orderableDrugForm"/>
                <code value="TAB"/>
              </high>
            </doseRange>
          </doseAndRate>
        </dosage>
      </MedicationStatement>
    </resource>
    <search>
      <mode value="match"/>
    </search>
  </entry>
  <entry>
    <fullUrl value="http://hapi.fhir.org/baseR4/MedicationStatement/921078"/>
    <resource>
      <MedicationStatement>
        <id value="921078"/>
        <meta>
          <versionId value="1"/>
          <lastUpdated value="2020-03-25T11:06:29.751+00:00"/>
          <source value="#r8lnCVkEU0jLA1No"/>
        </meta>
        <text>
          <status value="generated"/>
          <div>zolpidem 5mg sublingual tablet, 1 nocte</div>
        </text>
        <status value="active"/>
        <medicationCodeableConcept>
          <coding>
            <system value="http://snomed.info/ct"/>
            <code value="442160008"/>
            <display value="zolpidem 5mg sublingual tablet"/>
          </coding>
          <text value="zolpidem 5mg sublingual tablet"/>
        </medicationCodeableConcept>
        <subject>
          <reference value="Patient/921009"/>
        </subject>
        <dosage>
          <text value="1 tab before bed"/>
          <timing>
            <repeat>
              <frequency value="1"/>
              <period value="1"/>
              <periodUnit value="d"/>
            </repeat>
          </timing>
        </dosage>
      </MedicationStatement>
    </resource>
    <search>
      <mode value="match"/>
    </search>
  </entry>
  <entry>
    <fullUrl value="http://hapi.fhir.org/baseR4/MedicationStatement/921067"/>
    <resource>
      <MedicationStatement>
        <id value="921067"/>
        <meta>
          <versionId value="1"/>
          <lastUpdated value="2020-03-25T11:06:29.751+00:00"/>
          <source value="#r8lnCVkEU0jLA1No"/>
        </meta>
        <text>
          <status value="generated"/>
          <div>chlortalidone 15 mg once daily</div>
        </text>
        <status value="active"/>
        <medicationCodeableConcept>
          <coding>
            <system value="http://snomed.info/ct"/>
            <code value="376321007"/>
            <display value="chlortalidone 15 mg"/>
          </coding>
          <text value="chlortalidone 15 mg"/>
        </medicationCodeableConcept>
        <subject>
          <reference value="Patient/921009"/>
        </subject>
        <dosage>
          <text value="once daily"/>
          <timing>
            <repeat>
              <frequency value="1"/>
              <period value="1"/>
              <periodUnit value="d"/>
            </repeat>
          </timing>
        </dosage>
      </MedicationStatement>
    </resource>
    <search>
      <mode value="match"/>
    </search>
  </entry>
  <entry>
    <fullUrl value="http://hapi.fhir.org/baseR4/MedicationStatement/921077"/>
    <resource>
      <MedicationStatement>
        <id value="921077"/>
        <meta>
          <versionId value="1"/>
          <lastUpdated value="2020-03-25T11:06:29.751+00:00"/>
          <source value="#r8lnCVkEU0jLA1No"/>
        </meta>
        <text>
          <status value="generated"/>
          <div>terbinafine 250mg once daily</div>
        </text>
        <status value="active"/>
        <medicationCodeableConcept>
          <coding>
            <system value="http://snomed.info/ct"/>
            <code value="324718007"/>
            <display value="terbinafine 250mg"/>
          </coding>
          <text value="terbinafine 250mg"/>
        </medicationCodeableConcept>
        <subject>
          <reference value="Patient/921009"/>
        </subject>
        <dosage>
          <text value="1 tab once daily"/>
          <timing>
            <repeat>
              <frequency value="1"/>
              <period value="1"/>
              <periodUnit value="d"/>
            </repeat>
          </timing>
          <asNeededBoolean value="true"/>
        </dosage>
      </MedicationStatement>
    </resource>
    <search>
      <mode value="match"/>
    </search>
  </entry>
  <entry>
    <fullUrl value="http://hapi.fhir.org/baseR4/MedicationStatement/921066"/>
    <resource>
      <MedicationStatement>
        <id value="921066"/>
        <meta>
          <versionId value="1"/>
          <lastUpdated value="2020-03-25T11:06:29.751+00:00"/>
          <source value="#r8lnCVkEU0jLA1No"/>
        </meta>
        <text>
          <status value="generated"/>
          <div>carvedilol 25 mg twice daily</div>
        </text>
        <status value="active"/>
        <medicationCodeableConcept>
          <coding>
            <system value="http://snomed.info/ct"/>
            <code value="318632005"/>
            <display value="carvedilol 25 mg"/>
          </coding>
          <text value="carvedilol 25 mg"/>
        </medicationCodeableConcept>
        <subject>
          <reference value="Patient/921009"/>
        </subject>
        <dosage>
          <text value="twice daily"/>
          <timing>
            <repeat>
              <frequency value="2"/>
              <period value="1"/>
              <periodUnit value="d"/>
            </repeat>
          </timing>
        </dosage>
      </MedicationStatement>
    </resource>
    <search>
      <mode value="match"/>
    </search>
  </entry>
  <entry>
    <fullUrl value="http://hapi.fhir.org/baseR4/MedicationStatement/921069"/>
    <resource>
      <MedicationStatement>
        <id value="921069"/>
        <meta>
          <versionId value="1"/>
          <lastUpdated value="2020-03-25T11:06:29.751+00:00"/>
          <source value="#r8lnCVkEU0jLA1No"/>
        </meta>
        <text>
          <status value="generated"/>
          <div>gabapentin 600mg twice daily</div>
        </text>
        <status value="active"/>
        <medicationCodeableConcept>
          <coding>
            <system value="http://snomed.info/ct"/>
            <code value="323021008"/>
            <display value="gabapentin 600mg"/>
          </coding>
          <text value="gabapentin 600mg"/>
        </medicationCodeableConcept>
        <subject>
          <reference value="Patient/921009"/>
        </subject>
        <dosage>
          <text value="twice daily"/>
          <timing>
            <repeat>
              <frequency value="2"/>
              <period value="1"/>
              <periodUnit value="d"/>
            </repeat>
          </timing>
        </dosage>
      </MedicationStatement>
    </resource>
    <search>
      <mode value="match"/>
    </search>
  </entry>
  <entry>
    <fullUrl value="http://hapi.fhir.org/baseR4/MedicationStatement/921079"/>
    <resource>
      <MedicationStatement>
        <id value="921079"/>
        <meta>
          <versionId value="1"/>
          <lastUpdated value="2020-03-25T11:06:29.751+00:00"/>
          <source value="#r8lnCVkEU0jLA1No"/>
        </meta>
        <text>
          <status value="generated"/>
          <div>lisinopril 20mg mane</div>
        </text>
        <status value="active"/>
        <medicationCodeableConcept>
          <coding>
            <system value="http://snomed.info/ct"/>
            <code value="318860005"/>
            <display value="lisinopril 20mg"/>
          </coding>
          <text value="lisinopril 20mg"/>
        </medicationCodeableConcept>
        <subject>
          <reference value="Patient/921009"/>
        </subject>
        <dosage>
          <text value="once daily"/>
          <timing>
            <repeat>
              <frequency value="1"/>
              <period value="1"/>
              <periodUnit value="d"/>
            </repeat>
          </timing>
        </dosage>
      </MedicationStatement>
    </resource>
    <search>
      <mode value="match"/>
    </search>
  </entry>
  <entry>
    <fullUrl value="http://hapi.fhir.org/baseR4/MedicationStatement/921068"/>
    <resource>
      <MedicationStatement>
        <id value="921068"/>
        <meta>
          <versionId value="1"/>
          <lastUpdated value="2020-03-25T11:06:29.751+00:00"/>
          <source value="#r8lnCVkEU0jLA1No"/>
        </meta>
        <text>
          <status value="generated"/>
          <div>citalopram 20 mg once daily</div>
        </text>
        <status value="active"/>
        <medicationCodeableConcept>
          <coding>
            <system value="http://snomed.info/ct"/>
            <code value="321987003"/>
            <display value="citalopram 20 mg"/>
          </coding>
          <text value="citalopram 20 mg"/>
        </medicationCodeableConcept>
        <subject>
          <reference value="Patient/921009"/>
        </subject>
        <dosage>
          <text value="once daily"/>
          <timing>
            <repeat>
              <frequency value="1"/>
              <period value="1"/>
              <periodUnit value="d"/>
            </repeat>
          </timing>
        </dosage>
      </MedicationStatement>
    </resource>
    <search>
      <mode value="match"/>
    </search>
  </entry>
  <entry>
    <fullUrl value="http://hapi.fhir.org/baseR4/MedicationStatement/921074"/>
    <resource>
      <MedicationStatement>
        <id value="921074"/>
        <meta>
          <versionId value="1"/>
          <lastUpdated value="2020-03-25T11:06:29.751+00:00"/>
          <source value="#r8lnCVkEU0jLA1No"/>
        </meta>
        <text>
          <status value="generated"/>
          <div>omeprazole 40mg daily</div>
        </text>
        <status value="active"/>
        <medicationCodeableConcept>
          <coding>
            <system value="http://snomed.info/ct"/>
            <code value="407848004"/>
            <display value="omeprazole 40mg e/c tablet"/>
          </coding>
          <text value="omeprazole 40mg e/c tablet "/>
        </medicationCodeableConcept>
        <subject>
          <reference value="Patient/921009"/>
        </subject>
        <dosage>
          <text value="1 tab once daily"/>
          <timing>
            <repeat>
              <frequency value="1"/>
              <period value="1"/>
              <periodUnit value="d"/>
            </repeat>
          </timing>
        </dosage>
      </MedicationStatement>
    </resource>
    <search>
      <mode value="match"/>
    </search>
  </entry>
  <entry>
    <fullUrl value="http://hapi.fhir.org/baseR4/MedicationStatement/921063"/>
    <resource>
      <MedicationStatement>
        <id value="921063"/>
        <meta>
          <versionId value="1"/>
          <lastUpdated value="2020-03-25T11:06:29.751+00:00"/>
          <source value="#r8lnCVkEU0jLA1No"/>
        </meta>
        <text>
          <status value="generated"/>
          <div>salbutamol inhaler 2 puffs every 4 hours as required</div>
        </text>
        <status value="active"/>
        <medicationCodeableConcept>
          <coding>
            <system value="http://snomed.info/ct"/>
            <code value=" 320176004"/>
            <display value=" salbutamol 100micrograms/inhaler "/>
          </coding>
          <text value="salbutamol 100micrograms/inhaler"/>
        </medicationCodeableConcept>
        <subject>
          <reference value="Patient/921009"/>
        </subject>
        <dosage>
          <text value="2 puffs every 4 hours as needed"/>
          <timing>
            <repeat>
              <frequency value="1"/>
              <period value="4"/>
              <periodUnit value="h"/>
            </repeat>
          </timing>
          <asNeededBoolean value="true"/>
        </dosage>
      </MedicationStatement>
    </resource>
    <search>
      <mode value="match"/>
    </search>
  </entry>
  <entry>
    <fullUrl value="http://hapi.fhir.org/baseR4/MedicationStatement/921073"/>
    <resource>
      <MedicationStatement>
        <id value="921073"/>
        <meta>
          <versionId value="1"/>
          <lastUpdated value="2020-03-25T11:06:29.751+00:00"/>
          <source value="#r8lnCVkEU0jLA1No"/>
        </meta>
        <text>
          <status value="generated"/>
          <div>naproxen 500mg twice daily</div>
        </text>
        <status value="active"/>
        <medicationCodeableConcept>
          <coding>
            <system value="http://snomed.info/ct"/>
            <code value="329839005"/>
            <display value="naproxen 500mg e/c tablet"/>
          </coding>
          <text value="naproxen 500mg e/c tablet"/>
        </medicationCodeableConcept>
        <subject>
          <reference value="Patient/921009"/>
        </subject>
        <dosage>
          <text value="1 tab twice daily"/>
          <timing>
            <repeat>
              <frequency value="2"/>
              <period value="1"/>
              <periodUnit value="d"/>
            </repeat>
          </timing>
        </dosage>
      </MedicationStatement>
    </resource>
    <search>
      <mode value="match"/>
    </search>
  </entry>
  <entry>
    <fullUrl value="http://hapi.fhir.org/baseR4/MedicationStatement/921076"/>
    <resource>
      <MedicationStatement>
        <id value="921076"/>
        <meta>
          <versionId value="1"/>
          <lastUpdated value="2020-03-25T11:06:29.751+00:00"/>
          <source value="#r8lnCVkEU0jLA1No"/>
        </meta>
        <text>
          <status value="generated"/>
          <div>simvastatin 40mg once daily</div>
        </text>
        <status value="active"/>
        <medicationCodeableConcept>
          <coding>
            <system value="http://snomed.info/ct"/>
            <code value="429374003"/>
            <display value="simvastatin 40mg"/>
          </coding>
          <text value="simvastatin 40mg"/>
        </medicationCodeableConcept>
        <subject>
          <reference value="Patient/921009"/>
        </subject>
        <dosage>
          <text value="1 tab once daily"/>
          <timing>
            <repeat>
              <frequency value="1"/>
              <period value="1"/>
              <periodUnit value="d"/>
            </repeat>
          </timing>
          <asNeededBoolean value="true"/>
        </dosage>
      </MedicationStatement>
    </resource>
    <search>
      <mode value="match"/>
    </search>
  </entry>
  <entry>
    <fullUrl value="http://hapi.fhir.org/baseR4/MedicationStatement/921065"/>
    <resource>
      <MedicationStatement>
        <id value="921065"/>
        <meta>
          <versionId value="1"/>
          <lastUpdated value="2020-03-25T11:06:29.751+00:00"/>
          <source value="#r8lnCVkEU0jLA1No"/>
        </meta>
        <text>
          <status value="generated"/>
          <div>beclomethasone 2 puffs twice daily</div>
        </text>
        <status value="active"/>
        <medicationCodeableConcept>
          <coding>
            <system value="http://snomed.info/ct"/>
            <code value="376733004"/>
            <display value="beclomethasone dipropionate 40mcg aerosol"/>
          </coding>
          <text value="beclomethasone dipropionate 40mcg aerosol"/>
        </medicationCodeableConcept>
        <subject>
          <reference value="Patient/921009"/>
        </subject>
        <dosage>
          <text value="2 puffs twice daily"/>
          <timing>
            <repeat>
              <frequency value="2"/>
              <period value="1"/>
              <periodUnit value="d"/>
            </repeat>
          </timing>
          <asNeededBoolean value="false"/>
        </dosage>
      </MedicationStatement>
    </resource>
    <search>
      <mode value="match"/>
    </search>
  </entry>
  <entry>
    <fullUrl value="http://hapi.fhir.org/baseR4/MedicationStatement/921075"/>
    <resource>
      <MedicationStatement>
        <id value="921075"/>
        <meta>
          <versionId value="1"/>
          <lastUpdated value="2020-03-25T11:06:29.751+00:00"/>
          <source value="#r8lnCVkEU0jLA1No"/>
        </meta>
        <text>
          <status value="generated"/>
          <div>prednisone 20mg 2 tabs/day</div>
        </text>
        <status value="active"/>
        <medicationCodeableConcept>
          <coding>
            <system value="http://snomed.info/ct"/>
            <code value="325456002"/>
            <display value="prednisone 20mg"/>
          </coding>
          <text value="prednisone 20mg"/>
        </medicationCodeableConcept>
        <subject>
          <reference value="Patient/921009"/>
        </subject>
        <dosage>
          <text value="2 tabs once daily"/>
          <timing>
            <repeat>
              <frequency value="1"/>
              <period value="1"/>
              <periodUnit value="d"/>
            </repeat>
          </timing>
          <asNeededBoolean value="true"/>
        </dosage>
      </MedicationStatement>
    </resource>
    <search>
      <mode value="match"/>
    </search>
  </entry>
  <entry>
    <fullUrl value="http://hapi.fhir.org/baseR4/MedicationStatement/921064"/>
    <resource>
      <MedicationStatement>
        <id value="921064"/>
        <meta>
          <versionId value="1"/>
          <lastUpdated value="2020-03-25T11:06:29.751+00:00"/>
          <source value="#r8lnCVkEU0jLA1No"/>
        </meta>
        <text>
          <status value="generated"/>
          <div>aspirin 81mg once daily</div>
        </text>
        <contained>
          <Medication>
            <id value="med1"/>
            <code>
              <coding>
                <system value="http://snomed.info/ct"/>
                <code value="370167008 "/>
                <display value="aspirin 81mg e/c tablet "/>
              </coding>
              <text value="aspirin 81mg e/c tablet"/>
            </code>
          </Medication>
        </contained>
        <status value="active"/>
        <medicationReference>
          <reference value="#med1"/>
          <display value="aspirin 81mg e/c tablet"/>
        </medicationReference>
        <subject>
          <reference value="Patient/921009"/>
        </subject>
        <dosage>
          <text value="once daily"/>
          <timing>
            <repeat>
              <frequency value="1"/>
              <period value="1"/>
              <periodUnit value="d"/>
            </repeat>
          </timing>
        </dosage>
      </MedicationStatement>
    </resource>
    <search>
      <mode value="match"/>
    </search>
  </entry>
  <entry>
    <fullUrl value="http://hapi.fhir.org/baseR4/Patient/example"/>
    <resource>
      <Patient>
        <id value="example"/>
        <meta>
          <versionId value="19"/>
          <lastUpdated value="2020-03-18T04:55:58.137+00:00"/>
          <source value="#jQd948eABxSzPSEK"/>
        </meta>
        <text>
          <status value="generated"/>
          <div>
            <table>
              <tbody>
                <tr>
                  <td>Name</td>
                  <td>Peter James 
                              <b>Chalmers</b> ("Jim") 
                           </td>
                </tr>
                <tr>
                  <td>Address</td>
                  <td>534 Erewhon, Pleasantville, Vic, 3999</td>
                </tr>
                <tr>
                  <td>Contacts</td>
                  <td>Home: unknown. Work: (03) 5555 6473</td>
                </tr>
                <tr>
                  <td>Id</td>
                  <td>MRN: 12345 (Acme Healthcare)</td>
                </tr>
              </tbody>
            </table>
          </div>
        </text>
        <identifier>
          <use value="usual"/>
          <type>
            <coding>
              <system value="http://terminology.hl7.org/CodeSystem/v2-0203"/>
              <code value="MR"/>
            </coding>
          </type>
          <system value="urn:oid:1.2.36.146.595.217.0.1"/>
          <value value="12345"/>
          <period>
            <start value="2001-05-06"/>
          </period>
          <assigner>
            <display value="Acne Healthcare"/>
          </assigner>
        </identifier>
        <active value="true"/>
        <name>
          <use value="official"/>
          <family value="Chalmers"/>
          <given value="Peter"/>
          <given value="James"/>
        </name>
        <name>
          <use value="usual"/>
          <given value="Jim"/>
        </name>
        <name>
          <use value="maiden"/>
          <family value="Windsor"/>
          <given value="Peter"/>
          <given value="James"/>
          <period>
            <end value="2002"/>
          </period>
        </name>
        <telecom>
          <use value="home"/>
        </telecom>
        <telecom>
          <system value="phone"/>
          <value value="(03) 5555 6473"/>
          <use value="work"/>
          <rank value="1"/>
        </telecom>
        <telecom>
          <system value="phone"/>
          <value value="(03) 3410 5613"/>
          <use value="mobile"/>
          <rank value="2"/>
        </telecom>
        <telecom>
          <system value="phone"/>
          <value value="(03) 5555 8834"/>
          <use value="old"/>
          <period>
            <end value="2014"/>
          </period>
        </telecom>
        <gender value="male"/>
        <birthDate value="1974-12-25">
          <extension url="http://hl7.org/fhir/StructureDefinition/patient-birthTime">
            <valueDateTime value="1974-12-25T14:35:45-05:00"/>
          </extension>
        </birthDate>
        <deceasedBoolean value="false"/>
        <address>
          <use value="home"/>
          <type value="both"/>
          <text value="534 Erewhon St PeasantVille, Rainbow, Vic  3999"/>
          <line value="534 Erewhon St"/>
          <city value="PleasantVille"/>
          <district value="Rainbow"/>
          <state value="Vic"/>
          <postalCode value="3999"/>
          <period>
            <start value="1974-12-25"/>
          </period>
        </address>
        <contact>
          <relationship>
            <coding>
              <system value="http://terminology.hl7.org/CodeSystem/v2-0131"/>
              <code value="N"/>
            </coding>
          </relationship>
          <name>
            <family value="du Marché">
              <extension url="http://hl7.org/fhir/StructureDefinition/humanname-own-prefix">
                <valueString value="VV"/>
              </extension>
            </family>
            <given value="Bénédicte"/>
          </name>
          <telecom>
            <system value="phone"/>
            <value value="+33 (237) 998327"/>
          </telecom>
          <address>
            <use value="home"/>
            <type value="both"/>
            <line value="534 Erewhon St"/>
            <city value="PleasantVille"/>
            <district value="Rainbow"/>
            <state value="Vic"/>
            <postalCode value="3999"/>
            <period>
              <start value="1974-12-25"/>
            </period>
          </address>
          <gender value="female"/>
          <period>
            <start value="2012"/>
          </period>
        </contact>
      </Patient>
    </resource>
    <search>
      <mode value="include"/>
    </search>
  </entry>
  <entry>
    <fullUrl value="http://hapi.fhir.org/baseR4/Patient/921009"/>
    <resource>
      <Patient>
        <id value="921009"/>
        <meta>
          <versionId value="3"/>
          <lastUpdated value="2020-04-01T13:01:17.522+00:00"/>
          <source value="#WYbX5i8RxFerjmgY"/>
        </meta>
        <text>
          <status value="generated"/>
          <div>Edward Melonseed</div>
        </text>
        <name>
          <use value="official"/>
          <text value="Edward Melonseed"/>
          <family value="Melonseed"/>
          <given value="Edward"/>
        </name>
        <name>
          <use value="usual"/>
          <text value="Ed Melonseed"/>
          <family value="Melonseed"/>
          <given value="Ed"/>
        </name>
        <telecom>
          <system value="phone"/>
          <value value="(08)97654321"/>
          <use value="mobile"/>
        </telecom>
        <gender value="male"/>
        <birthDate value="1988-03-25"/>
        <address>
          <use value="work"/>
          <type value="postal"/>
          <text value="88/20 Tiwanon Road, Talad Kwan, Muang, Nonthaburi, 11000, Thailand"/>
          <line value="88/20 Tiwanon Road"/>
          <city value="Talad Kwan"/>
          <district value="Muang"/>
          <state value="Nonthaburi"/>
          <postalCode value="11000"/>
          <country value="TH"/>
        </address>
      </Patient>
    </resource>
    <search>
      <mode value="include"/>
    </search>
  </entry>
</Bundle>
