<?xml version="1.0" encoding="UTF-8"?>
<Bundle>
  <id value="15792624-5f41-4e1b-89cd-99bb6d64f628"/>
  <meta>
    <lastUpdated value="2020-05-31T19:18:49.635+00:00"/>
  </meta>
  <type value="searchset"/>
  <link>
    <relation value="self"/>
    <url value="http://hapi.fhir.org/baseR4?_getpages=15792624-5f41-4e1b-89cd-99bb6d64f628&amp;_getpagesoffset=1260&amp;_count=20&amp;_format=xml&amp;_pretty=true&amp;_bundletype=searchset"/>
  </link>
  <link>
    <relation value="next"/>
    <url value="http://hapi.fhir.org/baseR4?_getpages=15792624-5f41-4e1b-89cd-99bb6d64f628&amp;_getpagesoffset=1280&amp;_count=20&amp;_format=xml&amp;_pretty=true&amp;_bundletype=searchset"/>
  </link>
  <link>
    <relation value="previous"/>
    <url value="http://hapi.fhir.org/baseR4?_getpages=15792624-5f41-4e1b-89cd-99bb6d64f628&amp;_getpagesoffset=1240&amp;_count=20&amp;_format=xml&amp;_pretty=true&amp;_bundletype=searchset"/>
  </link>
  <entry>
    <fullUrl value="http://hapi.fhir.org/baseR4/MedicationStatement/1137784"/>
    <resource>
      <MedicationStatement>
        <id value="1137784"/>
        <meta>
          <versionId value="1"/>
          <lastUpdated value="2020-04-28T05:25:42.136+00:00"/>
          <source value="#BrOEeRA8mhoBDjzS"/>
        </meta>
        <text>
          <status value="generated"/>
          <div>naproxen 500mg twice daily</div>
        </text>
        <status value="active"/>
        <medicationCodeableConcept>
          <coding>
            <system value="http://snomed.info/ct"/>
            <code value="329839005"/>
            <display value="naproxen 500mg e/c tablet"/>
          </coding>
          <text value="naproxen 500mg e/c tablet"/>
        </medicationCodeableConcept>
        <subject>
          <reference value="Patient/1137720"/>
        </subject>
        <dosage>
          <text value="1 tab twice daily"/>
          <timing>
            <repeat>
              <frequency value="2"/>
              <period value="1"/>
              <periodUnit value="d"/>
            </repeat>
          </timing>
        </dosage>
      </MedicationStatement>
    </resource>
    <search>
      <mode value="match"/>
    </search>
  </entry>
  <entry>
    <fullUrl value="http://hapi.fhir.org/baseR4/MedicationStatement/1137783"/>
    <resource>
      <MedicationStatement>
        <id value="1137783"/>
        <meta>
          <versionId value="1"/>
          <lastUpdated value="2020-04-28T05:25:42.136+00:00"/>
          <source value="#BrOEeRA8mhoBDjzS"/>
        </meta>
        <text>
          <status value="generated"/>
          <div>metformin 1000mg twice daily</div>
        </text>
        <status value="active"/>
        <medicationCodeableConcept>
          <coding>
            <system value="http://snomed.info/ct"/>
            <code value="411533003"/>
            <display value="metformin 1000mg"/>
          </coding>
          <text value="metformin 1000mg"/>
        </medicationCodeableConcept>
        <subject>
          <reference value="Patient/1137720"/>
        </subject>
        <dosage>
          <text value="1 tab twice daily"/>
          <timing>
            <repeat>
              <frequency value="2"/>
              <period value="1"/>
              <periodUnit value="d"/>
            </repeat>
          </timing>
        </dosage>
      </MedicationStatement>
    </resource>
    <search>
      <mode value="match"/>
    </search>
  </entry>
  <entry>
    <fullUrl value="http://hapi.fhir.org/baseR4/MedicationStatement/1137782"/>
    <resource>
      <MedicationStatement>
        <id value="1137782"/>
        <meta>
          <versionId value="1"/>
          <lastUpdated value="2020-04-28T05:25:42.136+00:00"/>
          <source value="#BrOEeRA8mhoBDjzS"/>
        </meta>
        <text>
          <status value="generated"/>
          <div>losartan 100mg + hydrochlorothiazide 12.5mg once daily</div>
        </text>
        <status value="active"/>
        <medicationCodeableConcept>
          <coding>
            <system value="http://snomed.info/ct"/>
            <code value="444639002"/>
            <display value="losartan 100mg + hydrochlorothiazide 12.5mg"/>
          </coding>
          <text value="losartan 100mg + hydrochlorothiazide 12.5mg"/>
        </medicationCodeableConcept>
        <subject>
          <reference value="Patient/1137720"/>
        </subject>
        <dosage>
          <text value="once daily"/>
          <timing>
            <repeat>
              <frequency value="1"/>
              <period value="1"/>
              <periodUnit value="d"/>
            </repeat>
          </timing>
        </dosage>
      </MedicationStatement>
    </resource>
    <search>
      <mode value="match"/>
    </search>
  </entry>
  <entry>
    <fullUrl value="http://hapi.fhir.org/baseR4/MedicationStatement/1137792"/>
    <resource>
      <MedicationStatement>
        <id value="1137792"/>
        <meta>
          <versionId value="1"/>
          <lastUpdated value="2020-04-28T05:25:42.136+00:00"/>
          <source value="#BrOEeRA8mhoBDjzS"/>
        </meta>
        <status value="active"/>
        <medicationCodeableConcept>
          <coding>
            <system value="http://snomed.info/ct"/>
            <code value="321323009"/>
            <display value="buspirone 5mg"/>
          </coding>
        </medicationCodeableConcept>
        <subject>
          <reference value="Patient/1137720"/>
        </subject>
        <dosage>
          <text value="3 times daily"/>
          <timing>
            <repeat>
              <frequency value="3"/>
              <period value="1"/>
              <periodUnit value="d"/>
            </repeat>
          </timing>
        </dosage>
      </MedicationStatement>
    </resource>
    <search>
      <mode value="match"/>
    </search>
  </entry>
  <entry>
    <fullUrl value="http://hapi.fhir.org/baseR4/MedicationStatement/1137781"/>
    <resource>
      <MedicationStatement>
        <id value="1137781"/>
        <meta>
          <versionId value="1"/>
          <lastUpdated value="2020-04-28T05:25:42.136+00:00"/>
          <source value="#BrOEeRA8mhoBDjzS"/>
        </meta>
        <text>
          <status value="generated"/>
          <div>insulin glargine 100units/mL 28 units nocte</div>
        </text>
        <status value="active"/>
        <medicationCodeableConcept>
          <coding>
            <system value="http://snomed.info/ct"/>
            <code value="400847007"/>
            <display value="insulin glargine 100units/mL injection"/>
          </coding>
          <text value="insulin glargine 100units/mL injection"/>
        </medicationCodeableConcept>
        <subject>
          <reference value="Patient/1137720"/>
        </subject>
        <dosage>
          <text value="28 units before bed"/>
          <timing>
            <repeat>
              <frequency value="1"/>
              <period value="1"/>
              <periodUnit value="d"/>
            </repeat>
          </timing>
        </dosage>
      </MedicationStatement>
    </resource>
    <search>
      <mode value="match"/>
    </search>
  </entry>
  <entry>
    <fullUrl value="http://hapi.fhir.org/baseR4/MedicationStatement/1137791"/>
    <resource>
      <MedicationStatement>
        <id value="1137791"/>
        <meta>
          <versionId value="1"/>
          <lastUpdated value="2020-04-28T05:25:42.136+00:00"/>
          <source value="#BrOEeRA8mhoBDjzS"/>
        </meta>
        <text>
          <status value="generated"/>
          <div>isosorbide mononitrate 20mg once daily</div>
        </text>
        <status value="active"/>
        <medicationCodeableConcept>
          <coding>
            <system value="http://snomed.info/ct"/>
            <code value="319134001"/>
            <display value="isosorbide mononitrate 20mg"/>
          </coding>
          <text value="isosorbide mononitrate 20mg"/>
        </medicationCodeableConcept>
        <subject>
          <reference value="Patient/1137720"/>
        </subject>
        <dosage>
          <text value="once daily at bedtime"/>
          <timing>
            <repeat>
              <frequency value="1"/>
              <period value="1"/>
              <periodUnit value="d"/>
            </repeat>
          </timing>
        </dosage>
      </MedicationStatement>
    </resource>
    <search>
      <mode value="match"/>
    </search>
  </entry>
  <entry>
    <fullUrl value="http://hapi.fhir.org/baseR4/MedicationStatement/1137780"/>
    <resource>
      <MedicationStatement>
        <id value="1137780"/>
        <meta>
          <versionId value="1"/>
          <lastUpdated value="2020-04-28T05:25:42.136+00:00"/>
          <source value="#BrOEeRA8mhoBDjzS"/>
        </meta>
        <text>
          <status value="generated"/>
          <div>gabapentin 600mg twice daily</div>
        </text>
        <status value="active"/>
        <medicationCodeableConcept>
          <coding>
            <system value="http://snomed.info/ct"/>
            <code value="323021008"/>
            <display value="gabapentin 600mg"/>
          </coding>
          <text value="gabapentin 600mg"/>
        </medicationCodeableConcept>
        <subject>
          <reference value="Patient/1137720"/>
        </subject>
        <dosage>
          <text value="twice daily"/>
          <timing>
            <repeat>
              <frequency value="2"/>
              <period value="1"/>
              <periodUnit value="d"/>
            </repeat>
          </timing>
        </dosage>
      </MedicationStatement>
    </resource>
    <search>
      <mode value="match"/>
    </search>
  </entry>
  <entry>
    <fullUrl value="http://hapi.fhir.org/baseR4/MedicationStatement/1137790"/>
    <resource>
      <MedicationStatement>
        <id value="1137790"/>
        <meta>
          <versionId value="1"/>
          <lastUpdated value="2020-04-28T05:25:42.136+00:00"/>
          <source value="#BrOEeRA8mhoBDjzS"/>
        </meta>
        <text>
          <status value="generated"/>
          <div>lisinopril 20mg mane</div>
        </text>
        <status value="active"/>
        <medicationCodeableConcept>
          <coding>
            <system value="http://snomed.info/ct"/>
            <code value="318860005"/>
            <display value="lisinopril 20mg"/>
          </coding>
          <text value="lisinopril 20mg"/>
        </medicationCodeableConcept>
        <subject>
          <reference value="Patient/1137720"/>
        </subject>
        <dosage>
          <text value="once daily"/>
          <timing>
            <repeat>
              <frequency value="1"/>
              <period value="1"/>
              <periodUnit value="d"/>
            </repeat>
          </timing>
        </dosage>
      </MedicationStatement>
    </resource>
    <search>
      <mode value="match"/>
    </search>
  </entry>
  <entry>
    <fullUrl value="http://hapi.fhir.org/baseR4/MedicationStatement/1137779"/>
    <resource>
      <MedicationStatement>
        <id value="1137779"/>
        <meta>
          <versionId value="1"/>
          <lastUpdated value="2020-04-28T05:25:42.136+00:00"/>
          <source value="#BrOEeRA8mhoBDjzS"/>
        </meta>
        <text>
          <status value="generated"/>
          <div>citalopram 20 mg once daily</div>
        </text>
        <status value="active"/>
        <medicationCodeableConcept>
          <coding>
            <system value="http://snomed.info/ct"/>
            <code value="321987003"/>
            <display value="citalopram 20 mg"/>
          </coding>
          <text value="citalopram 20 mg"/>
        </medicationCodeableConcept>
        <subject>
          <reference value="Patient/1137720"/>
        </subject>
        <dosage>
          <text value="once daily"/>
          <timing>
            <repeat>
              <frequency value="1"/>
              <period value="1"/>
              <periodUnit value="d"/>
            </repeat>
          </timing>
        </dosage>
      </MedicationStatement>
    </resource>
    <search>
      <mode value="match"/>
    </search>
  </entry>
  <entry>
    <fullUrl value="http://hapi.fhir.org/baseR4/MedicationStatement/1137789"/>
    <resource>
      <MedicationStatement>
        <id value="1137789"/>
        <meta>
          <versionId value="1"/>
          <lastUpdated value="2020-04-28T05:25:42.136+00:00"/>
          <source value="#BrOEeRA8mhoBDjzS"/>
        </meta>
        <text>
          <status value="generated"/>
          <div>zolpidem 5mg sublingual tablet, 1 nocte</div>
        </text>
        <status value="active"/>
        <medicationCodeableConcept>
          <coding>
            <system value="http://snomed.info/ct"/>
            <code value="442160008"/>
            <display value="zolpidem 5mg sublingual tablet"/>
          </coding>
          <text value="zolpidem 5mg sublingual tablet"/>
        </medicationCodeableConcept>
        <subject>
          <reference value="Patient/1137720"/>
        </subject>
        <dosage>
          <text value="1 tab before bed"/>
          <timing>
            <repeat>
              <frequency value="1"/>
              <period value="1"/>
              <periodUnit value="d"/>
            </repeat>
          </timing>
        </dosage>
      </MedicationStatement>
    </resource>
    <search>
      <mode value="match"/>
    </search>
  </entry>
  <entry>
    <fullUrl value="http://hapi.fhir.org/baseR4/MedicationStatement/1137778"/>
    <resource>
      <MedicationStatement>
        <id value="1137778"/>
        <meta>
          <versionId value="1"/>
          <lastUpdated value="2020-04-28T05:25:42.136+00:00"/>
          <source value="#BrOEeRA8mhoBDjzS"/>
        </meta>
        <text>
          <status value="generated"/>
          <div>chlortalidone 15 mg once daily</div>
        </text>
        <status value="active"/>
        <medicationCodeableConcept>
          <coding>
            <system value="http://snomed.info/ct"/>
            <code value="376321007"/>
            <display value="chlortalidone 15 mg"/>
          </coding>
          <text value="chlortalidone 15 mg"/>
        </medicationCodeableConcept>
        <subject>
          <reference value="Patient/1137720"/>
        </subject>
        <dosage>
          <text value="once daily"/>
          <timing>
            <repeat>
              <frequency value="1"/>
              <period value="1"/>
              <periodUnit value="d"/>
            </repeat>
          </timing>
        </dosage>
      </MedicationStatement>
    </resource>
    <search>
      <mode value="match"/>
    </search>
  </entry>
  <entry>
    <fullUrl value="http://hapi.fhir.org/baseR4/MedicationStatement/1137788"/>
    <resource>
      <MedicationStatement>
        <id value="1137788"/>
        <meta>
          <versionId value="1"/>
          <lastUpdated value="2020-04-28T05:25:42.136+00:00"/>
          <source value="#BrOEeRA8mhoBDjzS"/>
        </meta>
        <text>
          <status value="generated"/>
          <div>terbinafine 250mg once daily</div>
        </text>
        <status value="active"/>
        <medicationCodeableConcept>
          <coding>
            <system value="http://snomed.info/ct"/>
            <code value="324718007"/>
            <display value="terbinafine 250mg"/>
          </coding>
          <text value="terbinafine 250mg"/>
        </medicationCodeableConcept>
        <subject>
          <reference value="Patient/1137720"/>
        </subject>
        <dosage>
          <text value="1 tab once daily"/>
          <timing>
            <repeat>
              <frequency value="1"/>
              <period value="1"/>
              <periodUnit value="d"/>
            </repeat>
          </timing>
          <asNeededBoolean value="true"/>
        </dosage>
      </MedicationStatement>
    </resource>
    <search>
      <mode value="match"/>
    </search>
  </entry>
  <entry>
    <fullUrl value="http://hapi.fhir.org/baseR4/MedicationStatement/1137777"/>
    <resource>
      <MedicationStatement>
        <id value="1137777"/>
        <meta>
          <versionId value="1"/>
          <lastUpdated value="2020-04-28T05:25:42.136+00:00"/>
          <source value="#BrOEeRA8mhoBDjzS"/>
        </meta>
        <text>
          <status value="generated"/>
          <div>carvedilol 25 mg twice daily</div>
        </text>
        <status value="active"/>
        <medicationCodeableConcept>
          <coding>
            <system value="http://snomed.info/ct"/>
            <code value="318632005"/>
            <display value="carvedilol 25 mg"/>
          </coding>
          <text value="carvedilol 25 mg"/>
        </medicationCodeableConcept>
        <subject>
          <reference value="Patient/1137720"/>
        </subject>
        <dosage>
          <text value="twice daily"/>
          <timing>
            <repeat>
              <frequency value="2"/>
              <period value="1"/>
              <periodUnit value="d"/>
            </repeat>
          </timing>
        </dosage>
      </MedicationStatement>
    </resource>
    <search>
      <mode value="match"/>
    </search>
  </entry>
  <entry>
    <fullUrl value="http://hapi.fhir.org/baseR4/MedicationStatement/1137787"/>
    <resource>
      <MedicationStatement>
        <id value="1137787"/>
        <meta>
          <versionId value="1"/>
          <lastUpdated value="2020-04-28T05:25:42.136+00:00"/>
          <source value="#BrOEeRA8mhoBDjzS"/>
        </meta>
        <text>
          <status value="generated"/>
          <div>simvastatin 40mg once daily</div>
        </text>
        <status value="active"/>
        <medicationCodeableConcept>
          <coding>
            <system value="http://snomed.info/ct"/>
            <code value="429374003"/>
            <display value="simvastatin 40mg"/>
          </coding>
          <text value="simvastatin 40mg"/>
        </medicationCodeableConcept>
        <subject>
          <reference value="Patient/1137720"/>
        </subject>
        <dosage>
          <text value="1 tab once daily"/>
          <timing>
            <repeat>
              <frequency value="1"/>
              <period value="1"/>
              <periodUnit value="d"/>
            </repeat>
          </timing>
          <asNeededBoolean value="true"/>
        </dosage>
      </MedicationStatement>
    </resource>
    <search>
      <mode value="match"/>
    </search>
  </entry>
  <entry>
    <fullUrl value="http://hapi.fhir.org/baseR4/MedicationStatement/1137776"/>
    <resource>
      <MedicationStatement>
        <id value="1137776"/>
        <meta>
          <versionId value="1"/>
          <lastUpdated value="2020-04-28T05:25:42.136+00:00"/>
          <source value="#BrOEeRA8mhoBDjzS"/>
        </meta>
        <text>
          <status value="generated"/>
          <div>beclomethasone 2 puffs twice daily</div>
        </text>
        <status value="active"/>
        <medicationCodeableConcept>
          <coding>
            <system value="http://snomed.info/ct"/>
            <code value="376733004"/>
            <display value="beclomethasone dipropionate 40mcg aerosol"/>
          </coding>
          <text value="beclomethasone dipropionate 40mcg aerosol"/>
        </medicationCodeableConcept>
        <subject>
          <reference value="Patient/1137720"/>
        </subject>
        <dosage>
          <text value="2 puffs twice daily"/>
          <timing>
            <repeat>
              <frequency value="2"/>
              <period value="1"/>
              <periodUnit value="d"/>
            </repeat>
          </timing>
          <asNeededBoolean value="false"/>
        </dosage>
      </MedicationStatement>
    </resource>
    <search>
      <mode value="match"/>
    </search>
  </entry>
  <entry>
    <fullUrl value="http://hapi.fhir.org/baseR4/MedicationStatement/1091622"/>
    <resource>
      <MedicationStatement>
        <id value="1091622"/>
        <meta>
          <versionId value="1"/>
          <lastUpdated value="2020-03-30T09:26:14.120+00:00"/>
          <source value="#5LrzOUAn2YwvMfDx"/>
        </meta>
        <status value="active"/>
        <medicationReference>
          <display value="abc"/>
        </medicationReference>
        <subject>
          <reference value="Patient/example"/>
        </subject>
      </MedicationStatement>
    </resource>
    <search>
      <mode value="match"/>
    </search>
  </entry>
  <entry>
    <fullUrl value="http://hapi.fhir.org/baseR4/MedicationStatement/1091616"/>
    <resource>
      <MedicationStatement>
        <id value="1091616"/>
        <meta>
          <versionId value="1"/>
          <lastUpdated value="2020-03-30T06:31:08.750+00:00"/>
          <source value="#qIDm9WTDPqKSENih"/>
        </meta>
        <status value="active"/>
        <medicationReference>
          <display value="abc"/>
        </medicationReference>
        <subject>
          <reference value="Patient/example"/>
        </subject>
      </MedicationStatement>
    </resource>
    <search>
      <mode value="match"/>
    </search>
  </entry>
  <entry>
    <fullUrl value="http://hapi.fhir.org/baseR4/MedicationStatement/CDME-MED1"/>
    <resource>
      <MedicationStatement>
        <id value="CDME-MED1"/>
        <meta>
          <versionId value="1"/>
          <lastUpdated value="2020-03-28T01:21:05.265+00:00"/>
          <source value="#Jlk4D0fbcffSpqTY"/>
        </meta>
        <contained>
          <Medication>
            <id value="123456"/>
            <code>
              <coding>
                <system value="http://www.nlm.nih.gov/research/umls/rxnorm"/>
                <code value="617317"/>
                <display value="Atorvastatin 20 MG [Lipitor]"/>
              </coding>
              <text value="Atorvastatin 20 MG [Lipitor]"/>
            </code>
          </Medication>
        </contained>
        <status value="active"/>
        <medicationReference>
          <reference value="#123456"/>
          <display value="Atorvastatin 20 MG [Lipitor]"/>
        </medicationReference>
        <dosage>
          <text value="70 mg, Oral, Once every 6 hrs, 0 Refill(s)"/>
        </dosage>
      </MedicationStatement>
    </resource>
    <search>
      <mode value="match"/>
    </search>
  </entry>
  <entry>
    <fullUrl value="http://hapi.fhir.org/baseR4/MedicationStatement/LDME-MED1"/>
    <resource>
      <MedicationStatement>
        <id value="LDME-MED1"/>
        <meta>
          <versionId value="1"/>
          <lastUpdated value="2020-03-28T01:21:05.265+00:00"/>
          <source value="#Jlk4D0fbcffSpqTY"/>
        </meta>
        <contained>
          <Medication>
            <id value="12345"/>
            <code>
              <coding>
                <system value="http://www.nlm.nih.gov/research/umls/rxnorm"/>
                <code value="1362081"/>
                <display value="Aspirin / Dipyridamole Oral Capsule [Aggrenox]"/>
              </coding>
              <text value="Aspirin / Dipyridamole Oral Capsule [Aggrenox]"/>
            </code>
          </Medication>
        </contained>
        <status value="active"/>
        <medicationReference>
          <reference value="#12345"/>
          <display value="Aspirin / Dipyridamole Oral Capsule [Aggrenox]"/>
        </medicationReference>
        <dosage>
          <text value="60.0 mg, Nasal, PRN, 30 Refill(s)"/>
        </dosage>
      </MedicationStatement>
    </resource>
    <search>
      <mode value="match"/>
    </search>
  </entry>
  <entry>
    <fullUrl value="http://hapi.fhir.org/baseR4/MedicationStatement/LDME-MED2"/>
    <resource>
      <MedicationStatement>
        <id value="LDME-MED2"/>
        <meta>
          <versionId value="1"/>
          <lastUpdated value="2020-03-28T01:21:05.265+00:00"/>
          <source value="#Jlk4D0fbcffSpqTY"/>
        </meta>
        <contained>
          <Medication>
            <id value="1234567"/>
            <code>
              <coding>
                <system value="http://www.nlm.nih.gov/research/umls/rxnorm"/>
                <code value="201372"/>
                <display value="Captopril 25 MG Oral Tablet [Capoten]"/>
              </coding>
              <text value="Captopril 25 MG Oral Tablet [Capoten]"/>
            </code>
          </Medication>
        </contained>
        <status value="active"/>
        <medicationReference>
          <reference value="#1234567"/>
          <display value="Captopril 25 MG Oral Tablet [Capoten]"/>
        </medicationReference>
        <dosage>
          <text value=".01 mg, Caudal, PRN, 2 Refill(s)"/>
        </dosage>
      </MedicationStatement>
    </resource>
    <search>
      <mode value="match"/>
    </search>
  </entry>
  <entry>
    <fullUrl value="http://hapi.fhir.org/baseR4/Patient/1137720"/>
    <resource>
      <Patient>
        <id value="1137720"/>
        <meta>
          <versionId value="1"/>
          <lastUpdated value="2020-04-28T05:25:37.534+00:00"/>
          <source value="#yz6kLl36OOL1daq6"/>
        </meta>
        <text>
          <status value="generated"/>
          <div>Bella Davies</div>
        </text>
        <name>
          <use value="official"/>
          <text value="Bella Davies"/>
          <family value="Davies"/>
          <given value="Bella"/>
        </name>
        <gender value="female"/>
        <birthDate value="2020-04-27"/>
      </Patient>
    </resource>
    <search>
      <mode value="include"/>
    </search>
  </entry>
  <entry>
    <fullUrl value="http://hapi.fhir.org/baseR4/Patient/example"/>
    <resource>
      <Patient>
        <id value="example"/>
        <meta>
          <versionId value="19"/>
          <lastUpdated value="2020-03-18T04:55:58.137+00:00"/>
          <source value="#jQd948eABxSzPSEK"/>
        </meta>
        <text>
          <status value="generated"/>
          <div>
            <table>
              <tbody>
                <tr>
                  <td>Name</td>
                  <td>Peter James 
                              <b>Chalmers</b> ("Jim") 
                           </td>
                </tr>
                <tr>
                  <td>Address</td>
                  <td>534 Erewhon, Pleasantville, Vic, 3999</td>
                </tr>
                <tr>
                  <td>Contacts</td>
                  <td>Home: unknown. Work: (03) 5555 6473</td>
                </tr>
                <tr>
                  <td>Id</td>
                  <td>MRN: 12345 (Acme Healthcare)</td>
                </tr>
              </tbody>
            </table>
          </div>
        </text>
        <identifier>
          <use value="usual"/>
          <type>
            <coding>
              <system value="http://terminology.hl7.org/CodeSystem/v2-0203"/>
              <code value="MR"/>
            </coding>
          </type>
          <system value="urn:oid:1.2.36.146.595.217.0.1"/>
          <value value="12345"/>
          <period>
            <start value="2001-05-06"/>
          </period>
          <assigner>
            <display value="Acne Healthcare"/>
          </assigner>
        </identifier>
        <active value="true"/>
        <name>
          <use value="official"/>
          <family value="Chalmers"/>
          <given value="Peter"/>
          <given value="James"/>
        </name>
        <name>
          <use value="usual"/>
          <given value="Jim"/>
        </name>
        <name>
          <use value="maiden"/>
          <family value="Windsor"/>
          <given value="Peter"/>
          <given value="James"/>
          <period>
            <end value="2002"/>
          </period>
        </name>
        <telecom>
          <use value="home"/>
        </telecom>
        <telecom>
          <system value="phone"/>
          <value value="(03) 5555 6473"/>
          <use value="work"/>
          <rank value="1"/>
        </telecom>
        <telecom>
          <system value="phone"/>
          <value value="(03) 3410 5613"/>
          <use value="mobile"/>
          <rank value="2"/>
        </telecom>
        <telecom>
          <system value="phone"/>
          <value value="(03) 5555 8834"/>
          <use value="old"/>
          <period>
            <end value="2014"/>
          </period>
        </telecom>
        <gender value="male"/>
        <birthDate value="1974-12-25">
          <extension url="http://hl7.org/fhir/StructureDefinition/patient-birthTime">
            <valueDateTime value="1974-12-25T14:35:45-05:00"/>
          </extension>
        </birthDate>
        <deceasedBoolean value="false"/>
        <address>
          <use value="home"/>
          <type value="both"/>
          <text value="534 Erewhon St PeasantVille, Rainbow, Vic  3999"/>
          <line value="534 Erewhon St"/>
          <city value="PleasantVille"/>
          <district value="Rainbow"/>
          <state value="Vic"/>
          <postalCode value="3999"/>
          <period>
            <start value="1974-12-25"/>
          </period>
        </address>
        <contact>
          <relationship>
            <coding>
              <system value="http://terminology.hl7.org/CodeSystem/v2-0131"/>
              <code value="N"/>
            </coding>
          </relationship>
          <name>
            <family value="du Marché">
              <extension url="http://hl7.org/fhir/StructureDefinition/humanname-own-prefix">
                <valueString value="VV"/>
              </extension>
            </family>
            <given value="Bénédicte"/>
          </name>
          <telecom>
            <system value="phone"/>
            <value value="+33 (237) 998327"/>
          </telecom>
          <address>
            <use value="home"/>
            <type value="both"/>
            <line value="534 Erewhon St"/>
            <city value="PleasantVille"/>
            <district value="Rainbow"/>
            <state value="Vic"/>
            <postalCode value="3999"/>
            <period>
              <start value="1974-12-25"/>
            </period>
          </address>
          <gender value="female"/>
          <period>
            <start value="2012"/>
          </period>
        </contact>
      </Patient>
    </resource>
    <search>
      <mode value="include"/>
    </search>
  </entry>
</Bundle>
