<?xml version="1.0" encoding="UTF-8"?>
<Bundle>
  <id value="15792624-5f41-4e1b-89cd-99bb6d64f628"/>
  <meta>
    <lastUpdated value="2020-05-31T19:18:49.635+00:00"/>
  </meta>
  <type value="searchset"/>
  <total value="5700"/>
  <link>
    <relation value="self"/>
    <url value="http://hapi.fhir.org/baseR4?_getpages=15792624-5f41-4e1b-89cd-99bb6d64f628&amp;_getpagesoffset=4020&amp;_count=20&amp;_format=xml&amp;_pretty=true&amp;_bundletype=searchset"/>
  </link>
  <link>
    <relation value="next"/>
    <url value="http://hapi.fhir.org/baseR4?_getpages=15792624-5f41-4e1b-89cd-99bb6d64f628&amp;_getpagesoffset=4040&amp;_count=20&amp;_format=xml&amp;_pretty=true&amp;_bundletype=searchset"/>
  </link>
  <link>
    <relation value="previous"/>
    <url value="http://hapi.fhir.org/baseR4?_getpages=15792624-5f41-4e1b-89cd-99bb6d64f628&amp;_getpagesoffset=4000&amp;_count=20&amp;_format=xml&amp;_pretty=true&amp;_bundletype=searchset"/>
  </link>
  <entry>
    <fullUrl value="http://hapi.fhir.org/baseR4/MedicationStatement/587915"/>
    <resource>
      <MedicationStatement>
        <id value="587915"/>
        <meta>
          <versionId value="1"/>
          <lastUpdated value="2020-01-10T10:43:00.368+00:00"/>
          <source value="#v9NVOQjX0tWltPZN"/>
        </meta>
        <text>
          <status value="generated"/>
          <div>losartan 100mg + hydrochlorothiazide 12.5mg once daily</div>
        </text>
        <status value="active"/>
        <medicationCodeableConcept>
          <coding>
            <system value="http://snomed.info/ct"/>
            <code value="444639002"/>
            <display value="losartan 100mg + hydrochlorothiazide 12.5mg"/>
          </coding>
          <text value="losartan 100mg + hydrochlorothiazide 12.5mg"/>
        </medicationCodeableConcept>
        <subject>
          <reference value="Patient/587853"/>
        </subject>
        <dosage>
          <text value="once daily"/>
          <timing>
            <repeat>
              <frequency value="1"/>
              <period value="1"/>
              <periodUnit value="d"/>
            </repeat>
          </timing>
        </dosage>
      </MedicationStatement>
    </resource>
    <search>
      <mode value="match"/>
    </search>
  </entry>
  <entry>
    <fullUrl value="http://hapi.fhir.org/baseR4/MedicationStatement/587925"/>
    <resource>
      <MedicationStatement>
        <id value="587925"/>
        <meta>
          <versionId value="1"/>
          <lastUpdated value="2020-01-10T10:43:00.368+00:00"/>
          <source value="#v9NVOQjX0tWltPZN"/>
        </meta>
        <status value="active"/>
        <medicationCodeableConcept>
          <coding>
            <system value="http://snomed.info/ct"/>
            <code value="321323009"/>
            <display value="buspirone 5mg"/>
          </coding>
        </medicationCodeableConcept>
        <subject>
          <reference value="Patient/587853"/>
        </subject>
        <dosage>
          <text value="3 times daily"/>
          <timing>
            <repeat>
              <frequency value="3"/>
              <period value="1"/>
              <periodUnit value="d"/>
            </repeat>
          </timing>
        </dosage>
      </MedicationStatement>
    </resource>
    <search>
      <mode value="match"/>
    </search>
  </entry>
  <entry>
    <fullUrl value="http://hapi.fhir.org/baseR4/MedicationStatement/587914"/>
    <resource>
      <MedicationStatement>
        <id value="587914"/>
        <meta>
          <versionId value="1"/>
          <lastUpdated value="2020-01-10T10:43:00.368+00:00"/>
          <source value="#v9NVOQjX0tWltPZN"/>
        </meta>
        <text>
          <status value="generated"/>
          <div>insulin glargine 100units/mL 28 units nocte</div>
        </text>
        <status value="active"/>
        <medicationCodeableConcept>
          <coding>
            <system value="http://snomed.info/ct"/>
            <code value="400847007"/>
            <display value="insulin glargine 100units/mL injection"/>
          </coding>
          <text value="insulin glargine 100units/mL injection"/>
        </medicationCodeableConcept>
        <subject>
          <reference value="Patient/587853"/>
        </subject>
        <dosage>
          <text value="28 units before bed"/>
          <timing>
            <repeat>
              <frequency value="1"/>
              <period value="1"/>
              <periodUnit value="d"/>
            </repeat>
          </timing>
        </dosage>
      </MedicationStatement>
    </resource>
    <search>
      <mode value="match"/>
    </search>
  </entry>
  <entry>
    <fullUrl value="http://hapi.fhir.org/baseR4/MedicationStatement/587917"/>
    <resource>
      <MedicationStatement>
        <id value="587917"/>
        <meta>
          <versionId value="1"/>
          <lastUpdated value="2020-01-10T10:43:00.368+00:00"/>
          <source value="#v9NVOQjX0tWltPZN"/>
        </meta>
        <text>
          <status value="generated"/>
          <div>naproxen 500mg twice daily</div>
        </text>
        <status value="active"/>
        <medicationCodeableConcept>
          <coding>
            <system value="http://snomed.info/ct"/>
            <code value="329839005"/>
            <display value="naproxen 500mg e/c tablet"/>
          </coding>
          <text value="naproxen 500mg e/c tablet"/>
        </medicationCodeableConcept>
        <subject>
          <reference value="Patient/587853"/>
        </subject>
        <dosage>
          <text value="1 tab twice daily"/>
          <timing>
            <repeat>
              <frequency value="2"/>
              <period value="1"/>
              <periodUnit value="d"/>
            </repeat>
          </timing>
        </dosage>
      </MedicationStatement>
    </resource>
    <search>
      <mode value="match"/>
    </search>
  </entry>
  <entry>
    <fullUrl value="http://hapi.fhir.org/baseR4/MedicationStatement/587920"/>
    <resource>
      <MedicationStatement>
        <id value="587920"/>
        <meta>
          <versionId value="1"/>
          <lastUpdated value="2020-01-10T10:43:00.368+00:00"/>
          <source value="#v9NVOQjX0tWltPZN"/>
        </meta>
        <text>
          <status value="generated"/>
          <div>simvastatin 40mg once daily</div>
        </text>
        <status value="active"/>
        <medicationCodeableConcept>
          <coding>
            <system value="http://snomed.info/ct"/>
            <code value="429374003"/>
            <display value="simvastatin 40mg"/>
          </coding>
          <text value="simvastatin 40mg"/>
        </medicationCodeableConcept>
        <subject>
          <reference value="Patient/587853"/>
        </subject>
        <dosage>
          <text value="1 tab once daily"/>
          <timing>
            <repeat>
              <frequency value="1"/>
              <period value="1"/>
              <periodUnit value="d"/>
            </repeat>
          </timing>
          <asNeededBoolean value="true"/>
        </dosage>
      </MedicationStatement>
    </resource>
    <search>
      <mode value="match"/>
    </search>
  </entry>
  <entry>
    <fullUrl value="http://hapi.fhir.org/baseR4/MedicationStatement/587916"/>
    <resource>
      <MedicationStatement>
        <id value="587916"/>
        <meta>
          <versionId value="1"/>
          <lastUpdated value="2020-01-10T10:43:00.368+00:00"/>
          <source value="#v9NVOQjX0tWltPZN"/>
        </meta>
        <text>
          <status value="generated"/>
          <div>metformin 1000mg twice daily</div>
        </text>
        <status value="active"/>
        <medicationCodeableConcept>
          <coding>
            <system value="http://snomed.info/ct"/>
            <code value="411533003"/>
            <display value="metformin 1000mg"/>
          </coding>
          <text value="metformin 1000mg"/>
        </medicationCodeableConcept>
        <subject>
          <reference value="Patient/587853"/>
        </subject>
        <dosage>
          <text value="1 tab twice daily"/>
          <timing>
            <repeat>
              <frequency value="2"/>
              <period value="1"/>
              <periodUnit value="d"/>
            </repeat>
          </timing>
        </dosage>
      </MedicationStatement>
    </resource>
    <search>
      <mode value="match"/>
    </search>
  </entry>
  <entry>
    <fullUrl value="http://hapi.fhir.org/baseR4/MedicationStatement/587786"/>
    <resource>
      <MedicationStatement>
        <id value="587786"/>
        <meta>
          <versionId value="1"/>
          <lastUpdated value="2020-01-08T09:38:29.797+00:00"/>
          <source value="#R0ye1g9ufFhnyAPi"/>
        </meta>
        <medicationReference>
          <reference value="Medication/587775"/>
        </medicationReference>
        <subject>
          <reference value="Patient/5"/>
        </subject>
        <dosage>
          <text value="200"/>
        </dosage>
      </MedicationStatement>
    </resource>
    <search>
      <mode value="match"/>
    </search>
  </entry>
  <entry>
    <fullUrl value="http://hapi.fhir.org/baseR4/MedicationStatement/587783"/>
    <resource>
      <MedicationStatement>
        <id value="587783"/>
        <meta>
          <versionId value="1"/>
          <lastUpdated value="2020-01-08T09:32:03.103+00:00"/>
          <source value="#B5YzVfxUxs3vNlo7"/>
        </meta>
        <medicationReference>
          <reference value="Medication/587775"/>
        </medicationReference>
        <subject>
          <reference value="Patient/5"/>
        </subject>
        <dosage>
          <text value="200"/>
        </dosage>
      </MedicationStatement>
    </resource>
    <search>
      <mode value="match"/>
    </search>
  </entry>
  <entry>
    <fullUrl value="http://hapi.fhir.org/baseR4/MedicationStatement/587780"/>
    <resource>
      <MedicationStatement>
        <id value="587780"/>
        <meta>
          <versionId value="1"/>
          <lastUpdated value="2020-01-08T09:11:27.407+00:00"/>
          <source value="#mYYv39Jwht4xlB4Z"/>
        </meta>
        <contained>
          <Medication>
            <id value="med0309"/>
            <code>
              <coding>
                <system value="http://hl7.org/fhir/sid/ndc"/>
                <code value="50580-506-02"/>
                <display value="Tylenol PM"/>
              </coding>
            </code>
          </Medication>
        </contained>
        <medicationReference>
          <reference value="#med0309"/>
        </medicationReference>
        <subject>
          <reference value="Patient/5"/>
        </subject>
      </MedicationStatement>
    </resource>
    <search>
      <mode value="match"/>
    </search>
  </entry>
  <entry>
    <fullUrl value="http://hapi.fhir.org/baseR4/MedicationStatement/587733"/>
    <resource>
      <MedicationStatement>
        <id value="587733"/>
        <meta>
          <versionId value="1"/>
          <lastUpdated value="2020-01-08T06:27:31.923+00:00"/>
          <source value="#OAoN2cGGZBMxZ3B5"/>
        </meta>
        <contained>
          <Medication>
            <id value="med1"/>
            <code>
              <coding>
                <system value="http://snomed.info/ct"/>
                <code value="370167008 "/>
                <display value="aspirin 81mg e/c tablet "/>
              </coding>
              <text value="aspirin 81mg e/c tablet"/>
            </code>
          </Medication>
        </contained>
        <medicationReference>
          <reference value="#med1"/>
          <display value="aspirin 81mg e/c tablet"/>
        </medicationReference>
        <subject>
          <reference value="Patient/243497"/>
        </subject>
      </MedicationStatement>
    </resource>
    <search>
      <mode value="match"/>
    </search>
  </entry>
  <entry>
    <fullUrl value="http://hapi.fhir.org/baseR4/MedicationStatement/587732"/>
    <resource>
      <MedicationStatement>
        <id value="587732"/>
        <meta>
          <versionId value="1"/>
          <lastUpdated value="2020-01-08T06:24:55.187+00:00"/>
          <source value="#SxwSvzIHEBH32zEQ"/>
        </meta>
        <subject>
          <reference value="Patient/243497"/>
        </subject>
      </MedicationStatement>
    </resource>
    <search>
      <mode value="match"/>
    </search>
  </entry>
  <entry>
    <fullUrl value="http://hapi.fhir.org/baseR4/MedicationStatement/587520"/>
    <resource>
      <MedicationStatement>
        <id value="587520"/>
        <meta>
          <versionId value="1"/>
          <lastUpdated value="2020-01-07T07:30:41.395+00:00"/>
          <source value="#VqEMBQxRFuSL2RvV"/>
        </meta>
      </MedicationStatement>
    </resource>
    <search>
      <mode value="match"/>
    </search>
  </entry>
  <entry>
    <fullUrl value="http://hapi.fhir.org/baseR4/MedicationStatement/587519"/>
    <resource>
      <MedicationStatement>
        <id value="587519"/>
        <meta>
          <versionId value="1"/>
          <lastUpdated value="2020-01-07T07:30:25.376+00:00"/>
          <source value="#FvmWcUQ22oKVVkWZ"/>
        </meta>
      </MedicationStatement>
    </resource>
    <search>
      <mode value="match"/>
    </search>
  </entry>
  <entry>
    <fullUrl value="http://hapi.fhir.org/baseR4/MedicationStatement/587360"/>
    <resource>
      <MedicationStatement>
        <id value="587360"/>
        <meta>
          <versionId value="1"/>
          <lastUpdated value="2020-01-06T16:30:49.039+00:00"/>
          <source value="#yiP3J0D1OOvsYWzu"/>
        </meta>
      </MedicationStatement>
    </resource>
    <search>
      <mode value="match"/>
    </search>
  </entry>
  <entry>
    <fullUrl value="http://hapi.fhir.org/baseR4/MedicationStatement/587359"/>
    <resource>
      <MedicationStatement>
        <id value="587359"/>
        <meta>
          <versionId value="1"/>
          <lastUpdated value="2020-01-06T16:29:43.344+00:00"/>
          <source value="#eeVvyAALgrZdexcy"/>
        </meta>
      </MedicationStatement>
    </resource>
    <search>
      <mode value="match"/>
    </search>
  </entry>
  <entry>
    <fullUrl value="http://hapi.fhir.org/baseR4/MedicationStatement/587358"/>
    <resource>
      <MedicationStatement>
        <id value="587358"/>
        <meta>
          <versionId value="1"/>
          <lastUpdated value="2020-01-06T16:28:13.244+00:00"/>
          <source value="#S2scdmEHy4WDjWrk"/>
        </meta>
      </MedicationStatement>
    </resource>
    <search>
      <mode value="match"/>
    </search>
  </entry>
  <entry>
    <fullUrl value="http://hapi.fhir.org/baseR4/MedicationStatement/584656"/>
    <resource>
      <MedicationStatement>
        <id value="584656"/>
        <meta>
          <versionId value="1"/>
          <lastUpdated value="2019-12-28T18:52:20.151+00:00"/>
          <source value="#yxe90QUVwzISXhBP"/>
        </meta>
        <text>
          <status value="generated"/>
          <div>aspirin 81mg once daily</div>
        </text>
        <contained>
          <Medication>
            <id value="med1"/>
            <code>
              <coding>
                <system value="http://snomed.info/ct"/>
                <code value="370167008 "/>
                <display value="aspirin 81mg e/c tablet "/>
              </coding>
              <text value="aspirin 81mg e/c tablet"/>
            </code>
          </Medication>
        </contained>
        <status value="active"/>
        <medicationReference>
          <reference value="#med1"/>
          <display value="aspirin 81mg e/c tablet"/>
        </medicationReference>
        <subject>
          <reference value="Patient/5"/>
          <display value="Adsams, s"/>
        </subject>
        <dosage>
          <text value="once daily"/>
          <timing>
            <repeat>
              <frequency value="1"/>
              <period value="1"/>
              <periodUnit value="d"/>
            </repeat>
          </timing>
        </dosage>
      </MedicationStatement>
    </resource>
    <search>
      <mode value="match"/>
    </search>
  </entry>
  <entry>
    <fullUrl value="http://hapi.fhir.org/baseR4/MedicationStatement/584334"/>
    <resource>
      <MedicationStatement>
        <id value="584334"/>
        <meta>
          <versionId value="1"/>
          <lastUpdated value="2019-12-25T07:30:15.745+00:00"/>
          <source value="#gvHuXWW1iHjyltCU"/>
        </meta>
        <contained>
          <Practitioner>
            <id value="1"/>
            <name>
              <text value="余光中"/>
            </name>
          </Practitioner>
        </contained>
        <contained>
          <Location>
            <id value="2"/>
            <name value="臺大醫院"/>
          </Location>
        </contained>
        <identifier>
          <value value="王小明"/>
        </identifier>
        <identifier>
          <value value="F123456789"/>
        </identifier>
        <statusReason>
          <text value="避免不良生活習慣"/>
        </statusReason>
        <medicationCodeableConcept id="0483">
          <text value="STILNOX F.C. TAB. 10MG"/>
        </medicationCodeableConcept>
        <subject>
          <reference value="Patient/584237"/>
        </subject>
        <dateAsserted value="2019-12-25T15:30:15+08:00"/>
        <informationSource>
          <reference value="#1"/>
        </informationSource>
        <derivedFrom>
          <reference value="#2"/>
        </derivedFrom>
        <reasonCode>
          <text value="失眠"/>
        </reasonCode>
        <dosage>
          <patientInstruction value="3"/>
          <maxDosePerPeriod id="一次一錠"/>
        </dosage>
      </MedicationStatement>
    </resource>
    <search>
      <mode value="match"/>
    </search>
  </entry>
  <entry>
    <fullUrl value="http://hapi.fhir.org/baseR4/MedicationStatement/584258"/>
    <resource>
      <MedicationStatement>
        <id value="584258"/>
        <meta>
          <versionId value="1"/>
          <lastUpdated value="2019-12-25T04:03:56.696+00:00"/>
          <source value="#HF9UVPasxy33ih4q"/>
        </meta>
        <contained>
          <Practitioner>
            <id value="1"/>
            <name>
              <text value="余光中"/>
            </name>
          </Practitioner>
        </contained>
        <contained>
          <Location>
            <id value="2"/>
            <name value="臺大醫院"/>
          </Location>
        </contained>
        <identifier>
          <value value="王小明"/>
        </identifier>
        <identifier>
          <value value="F123456789"/>
        </identifier>
        <statusReason>
          <text value="避免不良的生活作息"/>
        </statusReason>
        <medicationCodeableConcept id="0483">
          <text value="STILNOX F.C. TAB. 10MG"/>
        </medicationCodeableConcept>
        <subject>
          <reference value="Patient/584237"/>
        </subject>
        <dateAsserted value="2019-12-25T12:03:56+08:00"/>
        <informationSource>
          <reference value="#1"/>
        </informationSource>
        <derivedFrom>
          <reference value="#2"/>
        </derivedFrom>
        <reasonCode>
          <text value="失眠"/>
        </reasonCode>
        <dosage>
          <patientInstruction value="3"/>
          <maxDosePerPeriod id="一次一錠"/>
        </dosage>
      </MedicationStatement>
    </resource>
    <search>
      <mode value="match"/>
    </search>
  </entry>
  <entry>
    <fullUrl value="http://hapi.fhir.org/baseR4/MedicationStatement/584056"/>
    <resource>
      <MedicationStatement>
        <id value="584056"/>
        <meta>
          <versionId value="1"/>
          <lastUpdated value="2019-12-24T08:10:50.627+00:00"/>
          <source value="#hTDopJ1fz073LcWm"/>
        </meta>
        <contained>
          <Practitioner>
            <id value="1"/>
            <name>
              <family value="Tang"/>
              <given value="Velma"/>
              <prefix value="Dr"/>
            </name>
          </Practitioner>
        </contained>
        <contained>
          <Location>
            <id value="2"/>
            <name value="測試用"/>
          </Location>
        </contained>
        <identifier>
          <value value="測試用"/>
        </identifier>
        <identifier>
          <value value="5d1a4dfe-89f2-4a35-b720-b75ef28d6e59"/>
        </identifier>
        <statusReason>
          <text value="測試用"/>
        </statusReason>
        <medicationCodeableConcept id="123">
          <text value="測試用"/>
        </medicationCodeableConcept>
        <subject>
          <reference value="Patient/170"/>
        </subject>
        <dateAsserted value="2019-12-24T16:10:50+08:00"/>
        <informationSource>
          <reference value="#1"/>
        </informationSource>
        <derivedFrom>
          <reference value="#2"/>
        </derivedFrom>
        <reasonCode>
          <text value="測試用"/>
        </reasonCode>
        <dosage>
          <patientInstruction value="3"/>
          <maxDosePerPeriod id="6"/>
        </dosage>
      </MedicationStatement>
    </resource>
    <search>
      <mode value="match"/>
    </search>
  </entry>
  <entry>
    <fullUrl value="http://hapi.fhir.org/baseR4/Patient/584237"/>
    <resource>
      <Patient>
        <id value="584237"/>
        <meta>
          <versionId value="1"/>
          <lastUpdated value="2019-12-25T03:27:23.247+00:00"/>
          <source value="#FW9KJIdDwcMmHzSK"/>
        </meta>
        <text>
          <status value="generated"/>
          <div>
            <div class="hapiHeaderText"/>
            <table class="hapiPropertyTable">
              <tbody>
                <tr>
                  <td>Identifier</td>
                  <td>F123456789</td>
                </tr>
                <tr>
                  <td>Address</td>
                  <td/>
                </tr>
                <tr>
                  <td>Date of birth</td>
                  <td>
                    <span>12 October 1993</span>
                  </td>
                </tr>
              </tbody>
            </table>
          </div>
        </text>
        <identifier>
          <system value="身分證"/>
          <value value="F123456789"/>
        </identifier>
        <name>
          <text value="王小明"/>
        </name>
        <gender value="male"/>
        <birthDate value="1993-10-12"/>
        <address>
          <text value="新北市板橋區中山路88號"/>
        </address>
      </Patient>
    </resource>
    <search>
      <mode value="include"/>
    </search>
  </entry>
  <entry>
    <fullUrl value="http://hapi.fhir.org/baseR4/Patient/5"/>
    <resource>
      <Patient>
        <id value="5"/>
        <meta>
          <versionId value="88"/>
          <lastUpdated value="2020-05-14T12:37:17.910+00:00"/>
          <source value="#agJCn0xGKbOxs9px"/>
        </meta>
        <text>
          <status value="generated"/>
          <div>
            <table class="hapiPropertyTable">
              <tbody>
                <tr>
                  <td>Identifier</td>
                  <td/>
                </tr>
              </tbody>
            </table>
          </div>
        </text>
        <identifier>
          <type>
            <coding>
              <system value="http://hl7.org/fhir/v2/0203"/>
              <code value="MR"/>
            </coding>
          </type>
          <value value="      37b847a5-7e5b-439e-9adf-c325f0c837c9"/>
        </identifier>
        <name>
          <use value="official"/>
          <text value="Jane Jackson"/>
          <family value="Jackson"/>
          <given value="Jane"/>
        </name>
        <gender value="female"/>
        <birthDate value="1980-06-01"/>
        <address>
          <use value="home"/>
          <type value="both"/>
          <text value="Gesundheitsallee 12 in 44137 Dortmund"/>
          <line value="Gesundheitsallee 12"/>
          <city value="Dortmund"/>
          <postalCode value="44137"/>
        </address>
      </Patient>
    </resource>
    <search>
      <mode value="include"/>
    </search>
  </entry>
  <entry>
    <fullUrl value="http://hapi.fhir.org/baseR4/Patient/587853"/>
    <resource>
      <Patient>
        <id value="587853"/>
        <meta>
          <versionId value="1"/>
          <lastUpdated value="2020-01-10T10:42:54.238+00:00"/>
          <source value="#UAB9cyZ8oZOrvIPV"/>
        </meta>
        <text>
          <status value="generated"/>
          <div>Lars Andersen</div>
        </text>
        <identifier>
          <system value="http://clinfhir.com/fhir/NamingSystem/identifier"/>
          <value value="2020_01_10_1"/>
        </identifier>
        <name>
          <use value="official"/>
          <text value="Lars Andersen"/>
          <family value="Andersen"/>
          <given value="Lars"/>
        </name>
        <gender value="male"/>
        <birthDate value="2020-01-10"/>
      </Patient>
    </resource>
    <search>
      <mode value="include"/>
    </search>
  </entry>
  <entry>
    <fullUrl value="http://hapi.fhir.org/baseR4/Patient/170"/>
    <resource>
      <Patient>
        <id value="170"/>
        <meta>
          <versionId value="2"/>
          <lastUpdated value="2020-05-27T14:28:47.407+00:00"/>
          <source value="#EWAxQ04HTyLnKRCR"/>
        </meta>
        <text>
          <status value="generated"/>
          <div>
            <div class="hapiHeaderText">Caleb 
                     <b>CUSHING </b>
                  </div>
            <table class="hapiPropertyTable">
              <tbody>
                <tr>
                  <td>Identifier</td>
                  <td>5d1a4dfe-89f2-4a35-b720-b75ef28d6e59</td>
                </tr>
              </tbody>
            </table>
          </div>
        </text>
        <identifier>
          <type>
            <coding>
              <system value="http://hl7.org/fhir/v2/0203"/>
              <code value="MR"/>
            </coding>
          </type>
          <value value="5d1a4dfe-89f2-4a35-b720-b75ef28d6e59"/>
        </identifier>
        <name>
          <family value="Angela"/>
          <given value="Merkel"/>
        </name>
        <telecom>
          <system value="phone"/>
          <value value="00491752431986"/>
          <use value="mobile"/>
        </telecom>
      </Patient>
    </resource>
    <search>
      <mode value="include"/>
    </search>
  </entry>
  <entry>
    <fullUrl value="http://hapi.fhir.org/baseR4/Patient/243497"/>
    <resource>
      <Patient>
        <id value="243497"/>
        <meta>
          <versionId value="1"/>
          <lastUpdated value="2019-12-09T06:19:36.110+00:00"/>
          <source value="#KZiqxusCQhQm5zht"/>
        </meta>
        <text>
          <status value="generated"/>
          <div>Freya Walker</div>
        </text>
        <name>
          <use value="official"/>
          <text value="Freya Walker"/>
          <family value="Walker"/>
          <given value="Freya"/>
        </name>
        <gender value="female"/>
        <birthDate value="2019-12-09"/>
      </Patient>
    </resource>
    <search>
      <mode value="include"/>
    </search>
  </entry>
</Bundle>
