<?xml version="1.0" encoding="UTF-8"?>
<Bundle>
  <id value="15792624-5f41-4e1b-89cd-99bb6d64f628"/>
  <meta>
    <lastUpdated value="2020-05-31T19:18:49.635+00:00"/>
  </meta>
  <type value="searchset"/>
  <total value="5700"/>
  <link>
    <relation value="self"/>
    <url value="http://hapi.fhir.org/baseR4?_getpages=15792624-5f41-4e1b-89cd-99bb6d64f628&amp;_getpagesoffset=4040&amp;_count=20&amp;_format=xml&amp;_pretty=true&amp;_bundletype=searchset"/>
  </link>
  <link>
    <relation value="next"/>
    <url value="http://hapi.fhir.org/baseR4?_getpages=15792624-5f41-4e1b-89cd-99bb6d64f628&amp;_getpagesoffset=4060&amp;_count=20&amp;_format=xml&amp;_pretty=true&amp;_bundletype=searchset"/>
  </link>
  <link>
    <relation value="previous"/>
    <url value="http://hapi.fhir.org/baseR4?_getpages=15792624-5f41-4e1b-89cd-99bb6d64f628&amp;_getpagesoffset=4020&amp;_count=20&amp;_format=xml&amp;_pretty=true&amp;_bundletype=searchset"/>
  </link>
  <entry>
    <fullUrl value="http://hapi.fhir.org/baseR4/MedicationStatement/580604"/>
    <resource>
      <MedicationStatement>
        <id value="580604"/>
        <meta>
          <versionId value="1"/>
          <lastUpdated value="2019-12-22T02:18:56.476+00:00"/>
          <source value="#330NbPa7M0cQ84AK"/>
        </meta>
        <contained>
          <Practitioner>
            <id value="1"/>
            <name id="579942">
              <text value="楊製成"/>
            </name>
          </Practitioner>
        </contained>
        <contained>
          <Location>
            <id value="2"/>
            <name value="臺大醫院"/>
          </Location>
        </contained>
        <statusReason>
          <text value="123123123"/>
        </statusReason>
        <medicationCodeableConcept id="123123">
          <text value="1231231"/>
        </medicationCodeableConcept>
        <subject>
          <reference value="Patient/48183"/>
        </subject>
        <dateAsserted value="2019-12-22T10:18:55+08:00"/>
        <informationSource>
          <reference value="#1"/>
        </informationSource>
        <derivedFrom>
          <reference value="#2"/>
        </derivedFrom>
        <reasonCode>
          <text value="12321"/>
        </reasonCode>
        <dosage>
          <patientInstruction value="12312312"/>
          <maxDosePerPeriod id="123123123"/>
        </dosage>
      </MedicationStatement>
    </resource>
    <search>
      <mode value="match"/>
    </search>
  </entry>
  <entry>
    <fullUrl value="http://hapi.fhir.org/baseR4/MedicationStatement/580603"/>
    <resource>
      <MedicationStatement>
        <id value="580603"/>
        <meta>
          <versionId value="1"/>
          <lastUpdated value="2019-12-22T02:18:56.302+00:00"/>
          <source value="#GvLaSaFFhCnFYajz"/>
        </meta>
        <contained>
          <Practitioner>
            <id value="1"/>
            <name id="579942">
              <text value="楊製成"/>
            </name>
          </Practitioner>
        </contained>
        <contained>
          <Location>
            <id value="2"/>
            <name value="臺大醫院"/>
          </Location>
        </contained>
        <statusReason>
          <text value="123123123"/>
        </statusReason>
        <medicationCodeableConcept id="123123">
          <text value="1231231"/>
        </medicationCodeableConcept>
        <subject>
          <reference value="Patient/48183"/>
        </subject>
        <dateAsserted value="2019-12-22T10:18:55+08:00"/>
        <informationSource>
          <reference value="#1"/>
        </informationSource>
        <derivedFrom>
          <reference value="#2"/>
        </derivedFrom>
        <reasonCode>
          <text value="12321"/>
        </reasonCode>
        <dosage>
          <patientInstruction value="12312312"/>
          <maxDosePerPeriod id="123123123"/>
        </dosage>
      </MedicationStatement>
    </resource>
    <search>
      <mode value="match"/>
    </search>
  </entry>
  <entry>
    <fullUrl value="http://hapi.fhir.org/baseR4/MedicationStatement/580601"/>
    <resource>
      <MedicationStatement>
        <id value="580601"/>
        <meta>
          <versionId value="1"/>
          <lastUpdated value="2019-12-22T02:18:56.134+00:00"/>
          <source value="#HWcx3pG33l4qKMPu"/>
        </meta>
        <contained>
          <Practitioner>
            <id value="1"/>
            <name id="579942">
              <text value="楊製成"/>
            </name>
          </Practitioner>
        </contained>
        <contained>
          <Location>
            <id value="2"/>
            <name value="臺大醫院"/>
          </Location>
        </contained>
        <statusReason>
          <text value="123123123"/>
        </statusReason>
        <medicationCodeableConcept id="123123">
          <text value="1231231"/>
        </medicationCodeableConcept>
        <subject>
          <reference value="Patient/48183"/>
        </subject>
        <dateAsserted value="2019-12-22T10:18:55+08:00"/>
        <informationSource>
          <reference value="#1"/>
        </informationSource>
        <derivedFrom>
          <reference value="#2"/>
        </derivedFrom>
        <reasonCode>
          <text value="12321"/>
        </reasonCode>
        <dosage>
          <patientInstruction value="12312312"/>
          <maxDosePerPeriod id="123123123"/>
        </dosage>
      </MedicationStatement>
    </resource>
    <search>
      <mode value="match"/>
    </search>
  </entry>
  <entry>
    <fullUrl value="http://hapi.fhir.org/baseR4/MedicationStatement/580598"/>
    <resource>
      <MedicationStatement>
        <id value="580598"/>
        <meta>
          <versionId value="1"/>
          <lastUpdated value="2019-12-22T02:18:53.125+00:00"/>
          <source value="#vcDy1BTJPuU7LLpK"/>
        </meta>
        <contained>
          <Practitioner>
            <id value="1"/>
            <name id="579942">
              <text value="楊製成"/>
            </name>
          </Practitioner>
        </contained>
        <contained>
          <Location>
            <id value="2"/>
            <name value="臺大醫院"/>
          </Location>
        </contained>
        <statusReason>
          <text value="123123123"/>
        </statusReason>
        <medicationCodeableConcept id="123123">
          <text value="1231231"/>
        </medicationCodeableConcept>
        <subject>
          <reference value="Patient/48183"/>
        </subject>
        <dateAsserted value="2019-12-22T10:18:52+08:00"/>
        <informationSource>
          <reference value="#1"/>
        </informationSource>
        <derivedFrom>
          <reference value="#2"/>
        </derivedFrom>
        <reasonCode>
          <text value="12321"/>
        </reasonCode>
        <dosage>
          <patientInstruction value="12312312"/>
          <maxDosePerPeriod id="123123123"/>
        </dosage>
      </MedicationStatement>
    </resource>
    <search>
      <mode value="match"/>
    </search>
  </entry>
  <entry>
    <fullUrl value="http://hapi.fhir.org/baseR4/MedicationStatement/338864"/>
    <resource>
      <MedicationStatement>
        <id value="338864"/>
        <meta>
          <versionId value="1"/>
          <lastUpdated value="2019-12-13T18:59:40.224+00:00"/>
          <source value="#GmbcIWNzhqIy0ipA"/>
          <profile value="http://hl7.org/fhir/StructureDefinition/daf-medicationstatement"/>
        </meta>
        <text>
          <status value="generated"/>
          <div>hello</div>
        </text>
        <status value="completed"/>
        <medicationCodeableConcept>
          <coding>
            <system value="http://hl7.org/fhir/sid/ndc"/>
            <code value="52959-265-05"/>
            <display value="Prednisolone aAcetate 1 % Opht Drps"/>
          </coding>
          <coding>
            <system value="http://www.firstdatabank.com/products/nddf/"/>
            <code value="224010"/>
            <display value="Prednisolonea Acetate 1 % Opht Drps"/>
          </coding>
          <text value="Prednisolonea Acetate 1 % Eye Drops, Susp"/>
        </medicationCodeableConcept>
        <subject>
          <reference value="Patient/5"/>
          <display value="Adsams, s"/>
        </subject>
        <dosage>
          <text value="Administer 2 Drops to both eyes every six (6) hours for 5 days."/>
          <route>
            <text value="Both Eyes"/>
          </route>
        </dosage>
      </MedicationStatement>
    </resource>
    <search>
      <mode value="match"/>
    </search>
  </entry>
  <entry>
    <fullUrl value="http://hapi.fhir.org/baseR4/MedicationStatement/256963"/>
    <resource>
      <MedicationStatement>
        <id value="256963"/>
        <meta>
          <versionId value="1"/>
          <lastUpdated value="2019-12-12T11:02:12.239+00:00"/>
          <source value="#mQPFw8VSnhd3GiX7"/>
        </meta>
        <text>
          <status value="generated"/>
          <div>
            <p>
              <b>Generated Narrative with Details</b>
            </p>
            <p><b>id</b>: example002
                  </p>
            <p><b>contained</b>: 
                  </p>
            <p><b>status</b>: active
                  </p>
            <p><b>statusReason</b>: Liver enzymes abnormal 
                     <span>(Details : {SNOMED CT code '166643006' = 'Liver enzymes abnormal', given as 'Liver enzymes abnormal'})</span></p>
            <p><b>medication</b>: id: med0309; Tylenol PM 
                     <span>(Details : {http://hl7.org/fhir/sid/ndc code '50580-506-02' = 'n/a', given as 'Tylenol PM'})</span>; Film-coated tablet (qualifier value) 
                     <span>(Details : {SNOMED CT code '385057009' = 'Film-coated tablet', given as 'Film-coated tablet (qualifier value)'})</span></p>
            <p><b>subject</b>: 
                     <a>Donald Duck</a></p>
            <p><b>effective</b>: 23/01/2015
                  </p>
            <p><b>dateAsserted</b>: 22/02/2015
                  </p>
            <p><b>informationSource</b>: 
                     <a>Donald Duck</a></p>
            <p><b>note</b>: Patient cannot take acetaminophen as per Dr instructions
                  </p>
          </div>
        </text>
        <status value="active"/>
        <statusReason>
          <coding>
            <system value="http://snomed.info/sct"/>
            <code value="166643006"/>
            <display value="Liver enzymes abnormal"/>
          </coding>
        </statusReason>
        <subject>
          <reference value="Patient/256912"/>
          <display value="Donald Duck"/>
        </subject>
      </MedicationStatement>
    </resource>
    <search>
      <mode value="match"/>
    </search>
  </entry>
  <entry>
    <fullUrl value="http://hapi.fhir.org/baseR4/MedicationStatement/256893"/>
    <resource>
      <MedicationStatement>
        <id value="256893"/>
        <meta>
          <versionId value="1"/>
          <lastUpdated value="2019-12-12T11:00:40.662+00:00"/>
          <source value="#y1c9kvz4BBTmWGEN"/>
        </meta>
        <text>
          <status value="generated"/>
          <div>
            <p>
              <b>Generated Narrative with Details</b>
            </p>
            <p><b>id</b>: example002
                  </p>
            <p><b>contained</b>: 
                  </p>
            <p><b>status</b>: active
                  </p>
            <p><b>statusReason</b>: Liver enzymes abnormal 
                     <span>(Details : {SNOMED CT code '166643006' = 'Liver enzymes abnormal', given as 'Liver enzymes abnormal'})</span></p>
            <p><b>medication</b>: id: med0309; Tylenol PM 
                     <span>(Details : {http://hl7.org/fhir/sid/ndc code '50580-506-02' = 'n/a', given as 'Tylenol PM'})</span>; Film-coated tablet (qualifier value) 
                     <span>(Details : {SNOMED CT code '385057009' = 'Film-coated tablet', given as 'Film-coated tablet (qualifier value)'})</span></p>
            <p><b>subject</b>: 
                     <a>Donald Duck</a></p>
            <p><b>effective</b>: 23/01/2015
                  </p>
            <p><b>dateAsserted</b>: 22/02/2015
                  </p>
            <p><b>informationSource</b>: 
                     <a>Donald Duck</a></p>
            <p><b>note</b>: Patient cannot take acetaminophen as per Dr instructions
                  </p>
          </div>
        </text>
        <status value="active"/>
        <statusReason>
          <coding>
            <system value="http://snomed.info/sct"/>
            <code value="166643006"/>
            <display value="Liver enzymes abnormal"/>
          </coding>
        </statusReason>
        <subject>
          <reference value="Patient/256842"/>
          <display value="Donald Duck"/>
        </subject>
      </MedicationStatement>
    </resource>
    <search>
      <mode value="match"/>
    </search>
  </entry>
  <entry>
    <fullUrl value="http://hapi.fhir.org/baseR4/MedicationStatement/251206"/>
    <resource>
      <MedicationStatement>
        <id value="251206"/>
        <meta>
          <versionId value="1"/>
          <lastUpdated value="2019-12-11T08:57:31.687+00:00"/>
          <source value="#20JTR3qsZ1cLMjvl"/>
        </meta>
        <text>
          <status value="generated"/>
          <div>beclomethasone 2 puffs twice daily</div>
        </text>
        <status value="active"/>
        <medicationCodeableConcept>
          <coding>
            <system value="http://snomed.info/ct"/>
            <code value="376733004"/>
            <display value="beclomethasone dipropionate 40mcg aerosol"/>
          </coding>
          <text value="beclomethasone dipropionate 40mcg aerosol"/>
        </medicationCodeableConcept>
        <subject>
          <reference value="Patient/251150"/>
        </subject>
        <dosage>
          <text value="2 puffs twice daily"/>
          <timing>
            <repeat>
              <frequency value="2"/>
              <period value="1"/>
              <periodUnit value="d"/>
            </repeat>
          </timing>
          <asNeededBoolean value="false"/>
        </dosage>
      </MedicationStatement>
    </resource>
    <search>
      <mode value="match"/>
    </search>
  </entry>
  <entry>
    <fullUrl value="http://hapi.fhir.org/baseR4/MedicationStatement/251212"/>
    <resource>
      <MedicationStatement>
        <id value="251212"/>
        <meta>
          <versionId value="1"/>
          <lastUpdated value="2019-12-11T08:57:31.687+00:00"/>
          <source value="#20JTR3qsZ1cLMjvl"/>
        </meta>
        <text>
          <status value="generated"/>
          <div>losartan 100mg + hydrochlorothiazide 12.5mg once daily</div>
        </text>
        <status value="active"/>
        <medicationCodeableConcept>
          <coding>
            <system value="http://snomed.info/ct"/>
            <code value="444639002"/>
            <display value="losartan 100mg + hydrochlorothiazide 12.5mg"/>
          </coding>
          <text value="losartan 100mg + hydrochlorothiazide 12.5mg"/>
        </medicationCodeableConcept>
        <subject>
          <reference value="Patient/251150"/>
        </subject>
        <dosage>
          <text value="once daily"/>
          <timing>
            <repeat>
              <frequency value="1"/>
              <period value="1"/>
              <periodUnit value="d"/>
            </repeat>
          </timing>
        </dosage>
      </MedicationStatement>
    </resource>
    <search>
      <mode value="match"/>
    </search>
  </entry>
  <entry>
    <fullUrl value="http://hapi.fhir.org/baseR4/MedicationStatement/251222"/>
    <resource>
      <MedicationStatement>
        <id value="251222"/>
        <meta>
          <versionId value="1"/>
          <lastUpdated value="2019-12-11T08:57:31.687+00:00"/>
          <source value="#20JTR3qsZ1cLMjvl"/>
        </meta>
        <status value="active"/>
        <medicationCodeableConcept>
          <coding>
            <system value="http://snomed.info/ct"/>
            <code value="321323009"/>
            <display value="buspirone 5mg"/>
          </coding>
        </medicationCodeableConcept>
        <subject>
          <reference value="Patient/251150"/>
        </subject>
        <dosage>
          <text value="3 times daily"/>
          <timing>
            <repeat>
              <frequency value="3"/>
              <period value="1"/>
              <periodUnit value="d"/>
            </repeat>
          </timing>
        </dosage>
      </MedicationStatement>
    </resource>
    <search>
      <mode value="match"/>
    </search>
  </entry>
  <entry>
    <fullUrl value="http://hapi.fhir.org/baseR4/MedicationStatement/251211"/>
    <resource>
      <MedicationStatement>
        <id value="251211"/>
        <meta>
          <versionId value="1"/>
          <lastUpdated value="2019-12-11T08:57:31.687+00:00"/>
          <source value="#20JTR3qsZ1cLMjvl"/>
        </meta>
        <text>
          <status value="generated"/>
          <div>insulin glargine 100units/mL 28 units nocte</div>
        </text>
        <status value="active"/>
        <medicationCodeableConcept>
          <coding>
            <system value="http://snomed.info/ct"/>
            <code value="400847007"/>
            <display value="insulin glargine 100units/mL injection"/>
          </coding>
          <text value="insulin glargine 100units/mL injection"/>
        </medicationCodeableConcept>
        <subject>
          <reference value="Patient/251150"/>
        </subject>
        <dosage>
          <text value="28 units before bed"/>
          <timing>
            <repeat>
              <frequency value="1"/>
              <period value="1"/>
              <periodUnit value="d"/>
            </repeat>
          </timing>
        </dosage>
      </MedicationStatement>
    </resource>
    <search>
      <mode value="match"/>
    </search>
  </entry>
  <entry>
    <fullUrl value="http://hapi.fhir.org/baseR4/MedicationStatement/251214"/>
    <resource>
      <MedicationStatement>
        <id value="251214"/>
        <meta>
          <versionId value="1"/>
          <lastUpdated value="2019-12-11T08:57:31.687+00:00"/>
          <source value="#20JTR3qsZ1cLMjvl"/>
        </meta>
        <text>
          <status value="generated"/>
          <div>naproxen 500mg twice daily</div>
        </text>
        <status value="active"/>
        <medicationCodeableConcept>
          <coding>
            <system value="http://snomed.info/ct"/>
            <code value="329839005"/>
            <display value="naproxen 500mg e/c tablet"/>
          </coding>
          <text value="naproxen 500mg e/c tablet"/>
        </medicationCodeableConcept>
        <subject>
          <reference value="Patient/251150"/>
        </subject>
        <dosage>
          <text value="1 tab twice daily"/>
          <timing>
            <repeat>
              <frequency value="2"/>
              <period value="1"/>
              <periodUnit value="d"/>
            </repeat>
          </timing>
        </dosage>
      </MedicationStatement>
    </resource>
    <search>
      <mode value="match"/>
    </search>
  </entry>
  <entry>
    <fullUrl value="http://hapi.fhir.org/baseR4/MedicationStatement/251213"/>
    <resource>
      <MedicationStatement>
        <id value="251213"/>
        <meta>
          <versionId value="1"/>
          <lastUpdated value="2019-12-11T08:57:31.687+00:00"/>
          <source value="#20JTR3qsZ1cLMjvl"/>
        </meta>
        <text>
          <status value="generated"/>
          <div>metformin 1000mg twice daily</div>
        </text>
        <status value="active"/>
        <medicationCodeableConcept>
          <coding>
            <system value="http://snomed.info/ct"/>
            <code value="411533003"/>
            <display value="metformin 1000mg"/>
          </coding>
          <text value="metformin 1000mg"/>
        </medicationCodeableConcept>
        <subject>
          <reference value="Patient/251150"/>
        </subject>
        <dosage>
          <text value="1 tab twice daily"/>
          <timing>
            <repeat>
              <frequency value="2"/>
              <period value="1"/>
              <periodUnit value="d"/>
            </repeat>
          </timing>
        </dosage>
      </MedicationStatement>
    </resource>
    <search>
      <mode value="match"/>
    </search>
  </entry>
  <entry>
    <fullUrl value="http://hapi.fhir.org/baseR4/MedicationStatement/251209"/>
    <resource>
      <MedicationStatement>
        <id value="251209"/>
        <meta>
          <versionId value="1"/>
          <lastUpdated value="2019-12-11T08:57:31.687+00:00"/>
          <source value="#20JTR3qsZ1cLMjvl"/>
        </meta>
        <text>
          <status value="generated"/>
          <div>citalopram 20 mg once daily</div>
        </text>
        <status value="active"/>
        <medicationCodeableConcept>
          <coding>
            <system value="http://snomed.info/ct"/>
            <code value="321987003"/>
            <display value="citalopram 20 mg"/>
          </coding>
          <text value="citalopram 20 mg"/>
        </medicationCodeableConcept>
        <subject>
          <reference value="Patient/251150"/>
        </subject>
        <dosage>
          <text value="once daily"/>
          <timing>
            <repeat>
              <frequency value="1"/>
              <period value="1"/>
              <periodUnit value="d"/>
            </repeat>
          </timing>
        </dosage>
      </MedicationStatement>
    </resource>
    <search>
      <mode value="match"/>
    </search>
  </entry>
  <entry>
    <fullUrl value="http://hapi.fhir.org/baseR4/MedicationStatement/251219"/>
    <resource>
      <MedicationStatement>
        <id value="251219"/>
        <meta>
          <versionId value="1"/>
          <lastUpdated value="2019-12-11T08:57:31.687+00:00"/>
          <source value="#20JTR3qsZ1cLMjvl"/>
        </meta>
        <text>
          <status value="generated"/>
          <div>zolpidem 5mg sublingual tablet, 1 nocte</div>
        </text>
        <status value="active"/>
        <medicationCodeableConcept>
          <coding>
            <system value="http://snomed.info/ct"/>
            <code value="442160008"/>
            <display value="zolpidem 5mg sublingual tablet"/>
          </coding>
          <text value="zolpidem 5mg sublingual tablet"/>
        </medicationCodeableConcept>
        <subject>
          <reference value="Patient/251150"/>
        </subject>
        <dosage>
          <text value="1 tab before bed"/>
          <timing>
            <repeat>
              <frequency value="1"/>
              <period value="1"/>
              <periodUnit value="d"/>
            </repeat>
          </timing>
        </dosage>
      </MedicationStatement>
    </resource>
    <search>
      <mode value="match"/>
    </search>
  </entry>
  <entry>
    <fullUrl value="http://hapi.fhir.org/baseR4/MedicationStatement/251208"/>
    <resource>
      <MedicationStatement>
        <id value="251208"/>
        <meta>
          <versionId value="1"/>
          <lastUpdated value="2019-12-11T08:57:31.687+00:00"/>
          <source value="#20JTR3qsZ1cLMjvl"/>
        </meta>
        <text>
          <status value="generated"/>
          <div>chlortalidone 15 mg once daily</div>
        </text>
        <status value="active"/>
        <medicationCodeableConcept>
          <coding>
            <system value="http://snomed.info/ct"/>
            <code value="376321007"/>
            <display value="chlortalidone 15 mg"/>
          </coding>
          <text value="chlortalidone 15 mg"/>
        </medicationCodeableConcept>
        <subject>
          <reference value="Patient/251150"/>
        </subject>
        <dosage>
          <text value="once daily"/>
          <timing>
            <repeat>
              <frequency value="1"/>
              <period value="1"/>
              <periodUnit value="d"/>
            </repeat>
          </timing>
        </dosage>
      </MedicationStatement>
    </resource>
    <search>
      <mode value="match"/>
    </search>
  </entry>
  <entry>
    <fullUrl value="http://hapi.fhir.org/baseR4/MedicationStatement/250145"/>
    <resource>
      <MedicationStatement>
        <id value="250145"/>
        <meta>
          <versionId value="1"/>
          <lastUpdated value="2019-12-10T15:24:15.889+00:00"/>
          <source value="#zKJBqujIqVT6kd0H"/>
        </meta>
        <text>
          <status value="generated"/>
          <div>gabapentin 600mg twice daily</div>
        </text>
        <status value="active"/>
        <medicationCodeableConcept>
          <coding>
            <system value="http://snomed.info/ct"/>
            <code value="323021008"/>
            <display value="gabapentin 600mg"/>
          </coding>
          <text value="gabapentin 600mg"/>
        </medicationCodeableConcept>
        <subject>
          <reference value="Patient/250085"/>
        </subject>
        <dosage>
          <text value="twice daily"/>
          <timing>
            <repeat>
              <frequency value="2"/>
              <period value="1"/>
              <periodUnit value="d"/>
            </repeat>
          </timing>
        </dosage>
      </MedicationStatement>
    </resource>
    <search>
      <mode value="match"/>
    </search>
  </entry>
  <entry>
    <fullUrl value="http://hapi.fhir.org/baseR4/MedicationStatement/250084"/>
    <resource>
      <MedicationStatement>
        <id value="250084"/>
        <meta>
          <versionId value="1"/>
          <lastUpdated value="2019-12-10T15:18:33.744+00:00"/>
          <source value="#FBYdslYOv5ykGreo"/>
        </meta>
        <contained>
          <Medication>
            <id value="1"/>
            <code>
              <text value="Beclomethasone/fomoterol"/>
            </code>
          </Medication>
        </contained>
        <status value="active"/>
        <medicationReference>
          <reference value="#1"/>
        </medicationReference>
        <dosage>
          <timing>
            <code>
              <coding>
                <system value="http://hl7.org/fhir/v3/vs/GTSAbbreviation"/>
                <code value="BID"/>
              </coding>
              <text value="BID"/>
            </code>
          </timing>
        </dosage>
      </MedicationStatement>
    </resource>
    <search>
      <mode value="match"/>
    </search>
  </entry>
  <entry>
    <fullUrl value="http://hapi.fhir.org/baseR4/MedicationStatement/248524"/>
    <resource>
      <MedicationStatement>
        <id value="248524"/>
        <meta>
          <versionId value="1"/>
          <lastUpdated value="2019-12-10T09:08:35.792+00:00"/>
          <source value="#VJqJFJDY8aiJhskX"/>
        </meta>
        <identifier>
          <use value="official"/>
        </identifier>
        <identifier>
          <system value="http://www.bmc.nl/portal/medstatements"/>
          <value value="12345689"/>
        </identifier>
      </MedicationStatement>
    </resource>
    <search>
      <mode value="match"/>
    </search>
  </entry>
  <entry>
    <fullUrl value="http://hapi.fhir.org/baseR4/MedicationStatement/248489"/>
    <resource>
      <MedicationStatement>
        <id value="248489"/>
        <meta>
          <versionId value="1"/>
          <lastUpdated value="2019-12-10T06:44:45.321+00:00"/>
          <source value="#AtXFJWpIiAyGKrxj"/>
          <profile value="http:/sdfds.sdf.com"/>
          <security>
            <system value="syssecurity"/>
            <code value="codesecurity"/>
          </security>
          <tag>
            <system value="systetest"/>
            <code value="codetest"/>
          </tag>
        </meta>
        <identifier>
          <use value="official"/>
          <system value="http://www.bmc.nl/portal/medstatements"/>
          <value value="12345689"/>
        </identifier>
        <basedOn>
          <reference value="MedicationRequest/246761"/>
        </basedOn>
        <partOf>
          <reference value="MedicationAdministration/246771"/>
        </partOf>
        <status value="active"/>
        <statusReason>
          <coding>
            <system value="http://snomed.info/sct"/>
            <code value="33319005"/>
            <display value="Fentanyl"/>
          </coding>
        </statusReason>
        <category>
          <coding>
            <system value="http://terminology.hl7.org/CodeSystem/medication-statement-category"/>
            <code value="inpatient"/>
            <display value="Inpatient"/>
          </coding>
        </category>
        <medicationReference>
          <reference value="Medication/246793"/>
        </medicationReference>
        <subject>
          <reference value="Patient/246798"/>
          <display value="Donald Duck"/>
        </subject>
        <context>
          <reference value="Encounter/246770"/>
          <display value="encounter who leads to this prescription"/>
        </context>
        <effectivePeriod>
          <start value="2015-01-15T14:30:00+01:00"/>
          <end value="2015-01-30T14:30:00+01:00"/>
        </effectivePeriod>
        <dateAsserted value="2015-02-22"/>
        <informationSource>
          <reference value="Patient/246798"/>
          <display value="Donald Duck"/>
        </informationSource>
        <derivedFrom>
          <reference value="MedicationRequest/246761"/>
        </derivedFrom>
        <reasonCode>
          <coding>
            <system value="http://snomed.info/sct"/>
            <code value="32914008"/>
            <display value="Restless Legs"/>
          </coding>
        </reasonCode>
        <reasonReference>
          <reference value="Condition/246780"/>
        </reasonReference>
        <note>
          <text value="Patient indicates they miss the occasional dose"/>
        </note>
        <dosage>
          <sequence value="1"/>
          <text value="1-2 tablets once daily at bedtime as needed for restless legs"/>
          <additionalInstruction>
            <text value="Taking at bedtime"/>
          </additionalInstruction>
          <timing>
            <repeat>
              <frequency value="1"/>
              <period value="1"/>
              <periodUnit value="d"/>
            </repeat>
          </timing>
          <asNeededCodeableConcept>
            <coding>
              <system value="http://snomed.info/sct"/>
              <code value="32914008"/>
              <display value="Restless Legs"/>
            </coding>
          </asNeededCodeableConcept>
          <route>
            <coding>
              <system value="http://snomed.info/sct"/>
              <code value="26643006"/>
              <display value="Oral Route"/>
            </coding>
          </route>
          <doseAndRate>
            <type>
              <coding>
                <system value="http://terminology.hl7.org/CodeSystem/dose-rate-type"/>
                <code value="ordered"/>
                <display value="Ordered"/>
              </coding>
            </type>
            <doseRange>
              <low>
                <value value="1"/>
                <unit value="TAB"/>
                <system value="http://terminology.hl7.org/CodeSystem/v3-orderableDrugForm"/>
                <code value="TAB"/>
              </low>
              <high>
                <value value="2"/>
                <unit value="TAB"/>
                <system value="http://terminology.hl7.org/CodeSystem/v3-orderableDrugForm"/>
                <code value="TAB"/>
              </high>
            </doseRange>
          </doseAndRate>
        </dosage>
      </MedicationStatement>
    </resource>
    <search>
      <mode value="match"/>
    </search>
  </entry>
  <entry>
    <fullUrl value="http://hapi.fhir.org/baseR4/Encounter/246770"/>
    <resource>
      <Encounter>
        <id value="246770"/>
        <meta>
          <versionId value="1"/>
          <lastUpdated value="2019-12-09T10:06:39.743+00:00"/>
          <source value="#sfdvjjwgapfoub8S"/>
        </meta>
        <identifier>
          <use value="official"/>
        </identifier>
        <identifier>
          <system value="http://www.bmc.nl/portal/medstatements"/>
          <value value="12345689"/>
        </identifier>
      </Encounter>
    </resource>
    <search>
      <mode value="include"/>
    </search>
  </entry>
  <entry>
    <fullUrl value="http://hapi.fhir.org/baseR4/Patient/256912"/>
    <resource>
      <Patient>
        <id value="256912"/>
        <meta>
          <versionId value="1"/>
          <lastUpdated value="2019-12-12T11:01:48.425+00:00"/>
          <source value="#K98ZcyqywO3CkYKR"/>
        </meta>
        <text>
          <status value="generated"/>
          <div>
            <div class="hapiHeaderText">Mrs Katerina 
                     <b>NGUYEN </b>
                  </div>
            <table class="hapiPropertyTable">
              <tbody>
                <tr>
                  <td>Identifier</td>
                  <td>49476534</td>
                </tr>
                <tr>
                  <td>Address</td>
                  <td>
                    <span>Unit 7 </span>
                    <br/>
                    <span>76 Clydesdale St </span>
                    <br/>
                    <span>Como </span>
                    <span>WA </span>
                    <span>Australia </span>
                  </td>
                </tr>
                <tr>
                  <td>Date of birth</td>
                  <td>
                    <span>18 August 1979</span>
                  </td>
                </tr>
              </tbody>
            </table>
          </div>
        </text>
        <identifier>
          <value value="49476534"/>
        </identifier>
        <active value="true"/>
        <name>
          <use value="usual"/>
          <family value="Nguyen"/>
          <given value="Katerina"/>
          <prefix value="Mrs"/>
        </name>
        <telecom>
          <system value="phone"/>
          <value value="0403 823 832"/>
          <use value="mobile"/>
          <rank value="1"/>
        </telecom>
        <telecom>
          <system value="phone"/>
          <value value="08 9398 1165"/>
          <use value="home"/>
          <rank value="2"/>
        </telecom>
        <telecom>
          <system value="phone"/>
          <value value="08 9876 5432"/>
          <use value="work"/>
          <rank value="3"/>
        </telecom>
        <telecom>
          <system value="email"/>
          <value value="kate.nguyen79@gmail.com"/>
          <use value="work"/>
          <rank value="4"/>
        </telecom>
        <gender value="female"/>
        <birthDate value="1979-08-18"/>
        <deceasedBoolean value="true"/>
        <address>
          <use value="home"/>
          <line value="Unit 7"/>
          <line value="76 Clydesdale St"/>
          <city value="Como"/>
          <state value="WA"/>
          <postalCode value="6152"/>
          <country value="Australia"/>
        </address>
        <contact>
          <relationship>
            <coding>
              <system value="http://hl7.org/fhir/ValueSet/patient-contact-relationship"/>
              <code value="partner"/>
              <display value="Partner"/>
            </coding>
          </relationship>
          <name>
            <use value="usual"/>
            <family value="Nguyen"/>
            <given value="Jimmy"/>
            <prefix value="Mr"/>
          </name>
          <telecom>
            <system value="phone"/>
            <value value="0403 123 456"/>
            <use value="mobile"/>
            <rank value="1"/>
          </telecom>
          <telecom>
            <system value="phone"/>
            <value value="08 4564 3214"/>
            <use value="home"/>
            <rank value="2"/>
          </telecom>
          <telecom>
            <system value="phone"/>
            <value value="08 9994 5547"/>
            <use value="work"/>
            <rank value="3"/>
          </telecom>
          <telecom>
            <system value="email"/>
            <value value="jim.nguyen79@work.com"/>
            <use value="work"/>
            <rank value="4"/>
          </telecom>
          <address>
            <use value="home"/>
            <line value="Unit 7"/>
            <line value="76 Clydesdale St"/>
            <city value="Como"/>
            <state value="WA"/>
            <postalCode value="6152"/>
            <country value="Australia"/>
          </address>
          <gender value="male"/>
        </contact>
      </Patient>
    </resource>
    <search>
      <mode value="include"/>
    </search>
  </entry>
  <entry>
    <fullUrl value="http://hapi.fhir.org/baseR4/Patient/5"/>
    <resource>
      <Patient>
        <id value="5"/>
        <meta>
          <versionId value="88"/>
          <lastUpdated value="2020-05-14T12:37:17.910+00:00"/>
          <source value="#agJCn0xGKbOxs9px"/>
        </meta>
        <text>
          <status value="generated"/>
          <div>
            <table class="hapiPropertyTable">
              <tbody>
                <tr>
                  <td>Identifier</td>
                  <td/>
                </tr>
              </tbody>
            </table>
          </div>
        </text>
        <identifier>
          <type>
            <coding>
              <system value="http://hl7.org/fhir/v2/0203"/>
              <code value="MR"/>
            </coding>
          </type>
          <value value="      37b847a5-7e5b-439e-9adf-c325f0c837c9"/>
        </identifier>
        <name>
          <use value="official"/>
          <text value="Jane Jackson"/>
          <family value="Jackson"/>
          <given value="Jane"/>
        </name>
        <gender value="female"/>
        <birthDate value="1980-06-01"/>
        <address>
          <use value="home"/>
          <type value="both"/>
          <text value="Gesundheitsallee 12 in 44137 Dortmund"/>
          <line value="Gesundheitsallee 12"/>
          <city value="Dortmund"/>
          <postalCode value="44137"/>
        </address>
      </Patient>
    </resource>
    <search>
      <mode value="include"/>
    </search>
  </entry>
  <entry>
    <fullUrl value="http://hapi.fhir.org/baseR4/Patient/250085"/>
    <resource>
      <Patient>
        <id value="250085"/>
        <meta>
          <versionId value="1"/>
          <lastUpdated value="2019-12-10T15:24:10.425+00:00"/>
          <source value="#1ZYi2qp377JwEpqk"/>
        </meta>
        <text>
          <status value="generated"/>
          <div>Florence Taylor</div>
        </text>
        <name>
          <use value="official"/>
          <text value="Florence Taylor"/>
          <family value="Taylor"/>
          <given value="Florence"/>
        </name>
        <gender value="female"/>
        <birthDate value="2019-12-10"/>
      </Patient>
    </resource>
    <search>
      <mode value="include"/>
    </search>
  </entry>
  <entry>
    <fullUrl value="http://hapi.fhir.org/baseR4/Patient/48183"/>
    <resource>
      <Patient>
        <id value="48183"/>
        <meta>
          <versionId value="2"/>
          <lastUpdated value="2019-10-17T18:18:53.041+00:00"/>
          <source value="#MquSvKg82edMaU08"/>
        </meta>
        <text>
          <status value="generated"/>
          <div>
            <div class="hapiHeaderText">
              <b>WOMACK </b>
            </div>
            <table class="hapiPropertyTable">
              <tbody>
                <tr>
                  <td>Identifier</td>
                  <td>123</td>
                </tr>
                <tr>
                  <td>Date of birth</td>
                  <td>
                    <span>01 January 1990</span>
                  </td>
                </tr>
              </tbody>
            </table>
          </div>
        </text>
        <identifier>
          <use value="official"/>
          <system value="urn:lumiradx:consult"/>
          <value value="123"/>
        </identifier>
        <identifier>
          <use value="secondary"/>
          <system value="urn:lumiradx:mpi"/>
          <value value="456"/>
        </identifier>
        <name>
          <family value="WOMACK"/>
        </name>
        <name>
          <given value="ADAM"/>
        </name>
        <gender value="male"/>
        <birthDate value="1990-01-01"/>
      </Patient>
    </resource>
    <search>
      <mode value="include"/>
    </search>
  </entry>
  <entry>
    <fullUrl value="http://hapi.fhir.org/baseR4/Patient/256842"/>
    <resource>
      <Patient>
        <id value="256842"/>
        <meta>
          <versionId value="1"/>
          <lastUpdated value="2019-12-12T11:00:13.772+00:00"/>
          <source value="#o4cGgn9uAzQoxqJq"/>
        </meta>
        <text>
          <status value="generated"/>
          <div>
            <div class="hapiHeaderText">Mrs Katerina 
                     <b>NGUYEN </b>
                  </div>
            <table class="hapiPropertyTable">
              <tbody>
                <tr>
                  <td>Identifier</td>
                  <td>49476534</td>
                </tr>
                <tr>
                  <td>Address</td>
                  <td>
                    <span>Unit 7 </span>
                    <br/>
                    <span>76 Clydesdale St </span>
                    <br/>
                    <span>Como </span>
                    <span>WA </span>
                    <span>Australia </span>
                  </td>
                </tr>
                <tr>
                  <td>Date of birth</td>
                  <td>
                    <span>18 August 1979</span>
                  </td>
                </tr>
              </tbody>
            </table>
          </div>
        </text>
        <identifier>
          <value value="49476534"/>
        </identifier>
        <active value="true"/>
        <name>
          <use value="usual"/>
          <family value="Nguyen"/>
          <given value="Katerina"/>
          <prefix value="Mrs"/>
        </name>
        <telecom>
          <system value="phone"/>
          <value value="0403 823 832"/>
          <use value="mobile"/>
          <rank value="1"/>
        </telecom>
        <telecom>
          <system value="phone"/>
          <value value="08 9398 1165"/>
          <use value="home"/>
          <rank value="2"/>
        </telecom>
        <telecom>
          <system value="phone"/>
          <value value="08 9876 5432"/>
          <use value="work"/>
          <rank value="3"/>
        </telecom>
        <telecom>
          <system value="email"/>
          <value value="kate.nguyen79@gmail.com"/>
          <use value="work"/>
          <rank value="4"/>
        </telecom>
        <gender value="female"/>
        <birthDate value="1979-08-18"/>
        <deceasedBoolean value="true"/>
        <address>
          <use value="home"/>
          <line value="Unit 7"/>
          <line value="76 Clydesdale St"/>
          <city value="Como"/>
          <state value="WA"/>
          <postalCode value="6152"/>
          <country value="Australia"/>
        </address>
        <contact>
          <relationship>
            <coding>
              <system value="http://hl7.org/fhir/ValueSet/patient-contact-relationship"/>
              <code value="partner"/>
              <display value="Partner"/>
            </coding>
          </relationship>
          <name>
            <use value="usual"/>
            <family value="Nguyen"/>
            <given value="Jimmy"/>
            <prefix value="Mr"/>
          </name>
          <telecom>
            <system value="phone"/>
            <value value="0403 123 456"/>
            <use value="mobile"/>
            <rank value="1"/>
          </telecom>
          <telecom>
            <system value="phone"/>
            <value value="08 4564 3214"/>
            <use value="home"/>
            <rank value="2"/>
          </telecom>
          <telecom>
            <system value="phone"/>
            <value value="08 9994 5547"/>
            <use value="work"/>
            <rank value="3"/>
          </telecom>
          <telecom>
            <system value="email"/>
            <value value="jim.nguyen79@work.com"/>
            <use value="work"/>
            <rank value="4"/>
          </telecom>
          <address>
            <use value="home"/>
            <line value="Unit 7"/>
            <line value="76 Clydesdale St"/>
            <city value="Como"/>
            <state value="WA"/>
            <postalCode value="6152"/>
            <country value="Australia"/>
          </address>
          <gender value="male"/>
        </contact>
      </Patient>
    </resource>
    <search>
      <mode value="include"/>
    </search>
  </entry>
  <entry>
    <fullUrl value="http://hapi.fhir.org/baseR4/Patient/246798"/>
    <resource>
      <Patient>
        <id value="246798"/>
        <meta>
          <versionId value="1"/>
          <lastUpdated value="2019-12-09T10:06:50.569+00:00"/>
          <source value="#ymfZxcf4oqW9NZfM"/>
        </meta>
        <text>
          <status value="generated"/>
          <div>
            <div class="hapiHeaderText">Mrs Katerina 
                     <b>NGUYEN </b>
                  </div>
            <table class="hapiPropertyTable">
              <tbody>
                <tr>
                  <td>Identifier</td>
                  <td>49476534</td>
                </tr>
                <tr>
                  <td>Address</td>
                  <td>
                    <span>Unit 7 </span>
                    <br/>
                    <span>76 Clydesdale St </span>
                    <br/>
                    <span>Como </span>
                    <span>WA </span>
                    <span>Australia </span>
                  </td>
                </tr>
                <tr>
                  <td>Date of birth</td>
                  <td>
                    <span>18 August 1979</span>
                  </td>
                </tr>
              </tbody>
            </table>
          </div>
        </text>
        <identifier>
          <value value="49476534"/>
        </identifier>
        <active value="true"/>
        <name>
          <use value="usual"/>
          <family value="Nguyen"/>
          <given value="Katerina"/>
          <prefix value="Mrs"/>
        </name>
        <telecom>
          <system value="phone"/>
          <value value="0403 823 832"/>
          <use value="mobile"/>
          <rank value="1"/>
        </telecom>
        <telecom>
          <system value="phone"/>
          <value value="08 9398 1165"/>
          <use value="home"/>
          <rank value="2"/>
        </telecom>
        <telecom>
          <system value="phone"/>
          <value value="08 9876 5432"/>
          <use value="work"/>
          <rank value="3"/>
        </telecom>
        <telecom>
          <system value="email"/>
          <value value="kate.nguyen79@gmail.com"/>
          <use value="work"/>
          <rank value="4"/>
        </telecom>
        <gender value="female"/>
        <birthDate value="1979-08-18"/>
        <deceasedBoolean value="true"/>
        <address>
          <use value="home"/>
          <line value="Unit 7"/>
          <line value="76 Clydesdale St"/>
          <city value="Como"/>
          <state value="WA"/>
          <postalCode value="6152"/>
          <country value="Australia"/>
        </address>
        <contact>
          <relationship>
            <coding>
              <system value="http://hl7.org/fhir/ValueSet/patient-contact-relationship"/>
              <code value="partner"/>
              <display value="Partner"/>
            </coding>
          </relationship>
          <name>
            <use value="usual"/>
            <family value="Nguyen"/>
            <given value="Jimmy"/>
            <prefix value="Mr"/>
          </name>
          <telecom>
            <system value="phone"/>
            <value value="0403 123 456"/>
            <use value="mobile"/>
            <rank value="1"/>
          </telecom>
          <telecom>
            <system value="phone"/>
            <value value="08 4564 3214"/>
            <use value="home"/>
            <rank value="2"/>
          </telecom>
          <telecom>
            <system value="phone"/>
            <value value="08 9994 5547"/>
            <use value="work"/>
            <rank value="3"/>
          </telecom>
          <telecom>
            <system value="email"/>
            <value value="jim.nguyen79@work.com"/>
            <use value="work"/>
            <rank value="4"/>
          </telecom>
          <address>
            <use value="home"/>
            <line value="Unit 7"/>
            <line value="76 Clydesdale St"/>
            <city value="Como"/>
            <state value="WA"/>
            <postalCode value="6152"/>
            <country value="Australia"/>
          </address>
          <gender value="male"/>
        </contact>
      </Patient>
    </resource>
    <search>
      <mode value="include"/>
    </search>
  </entry>
  <entry>
    <fullUrl value="http://hapi.fhir.org/baseR4/Patient/251150"/>
    <resource>
      <Patient>
        <id value="251150"/>
        <meta>
          <versionId value="1"/>
          <lastUpdated value="2019-12-11T08:57:25.532+00:00"/>
          <source value="#FCj99yHJzailAGny"/>
        </meta>
        <text>
          <status value="generated"/>
          <div>Zachary Thompson</div>
        </text>
        <name>
          <use value="official"/>
          <text value="Zachary Thompson"/>
          <family value="Thompson"/>
          <given value="Zachary"/>
        </name>
        <gender value="male"/>
        <birthDate value="1983-12-11"/>
      </Patient>
    </resource>
    <search>
      <mode value="include"/>
    </search>
  </entry>
</Bundle>
