<?xml version="1.0" encoding="UTF-8"?>
<Bundle>
  <id value="15792624-5f41-4e1b-89cd-99bb6d64f628"/>
  <meta>
    <lastUpdated value="2020-05-31T19:18:49.635+00:00"/>
  </meta>
  <type value="searchset"/>
  <total value="5700"/>
  <link>
    <relation value="self"/>
    <url value="http://hapi.fhir.org/baseR4?_getpages=15792624-5f41-4e1b-89cd-99bb6d64f628&amp;_getpagesoffset=4080&amp;_count=20&amp;_format=xml&amp;_pretty=true&amp;_bundletype=searchset"/>
  </link>
  <link>
    <relation value="next"/>
    <url value="http://hapi.fhir.org/baseR4?_getpages=15792624-5f41-4e1b-89cd-99bb6d64f628&amp;_getpagesoffset=4100&amp;_count=20&amp;_format=xml&amp;_pretty=true&amp;_bundletype=searchset"/>
  </link>
  <link>
    <relation value="previous"/>
    <url value="http://hapi.fhir.org/baseR4?_getpages=15792624-5f41-4e1b-89cd-99bb6d64f628&amp;_getpagesoffset=4060&amp;_count=20&amp;_format=xml&amp;_pretty=true&amp;_bundletype=searchset"/>
  </link>
  <entry>
    <fullUrl value="http://hapi.fhir.org/baseR4/MedicationStatement/247742"/>
    <resource>
      <MedicationStatement>
        <id value="247742"/>
        <meta>
          <versionId value="1"/>
          <lastUpdated value="2019-12-09T19:39:09.436+00:00"/>
          <source value="#kg1TLtWzp4gm1E73"/>
        </meta>
        <contained>
          <Medication>
            <id value="1"/>
            <code>
              <text value="Beclomethasone/fomoterol"/>
            </code>
          </Medication>
        </contained>
        <status value="active"/>
        <medicationReference>
          <reference value="#1"/>
        </medicationReference>
        <dosage>
          <timing>
            <code>
              <coding>
                <system value="http://hl7.org/fhir/v3/vs/GTSAbbreviation"/>
                <code value="BID"/>
              </coding>
              <text value="BID"/>
            </code>
          </timing>
        </dosage>
      </MedicationStatement>
    </resource>
    <search>
      <mode value="match"/>
    </search>
  </entry>
  <entry>
    <fullUrl value="http://hapi.fhir.org/baseR4/MedicationStatement/247722"/>
    <resource>
      <MedicationStatement>
        <id value="247722"/>
        <meta>
          <versionId value="1"/>
          <lastUpdated value="2019-12-09T15:07:14.818+00:00"/>
          <source value="#fbrL45wfkrtJTCjf"/>
        </meta>
        <contained>
          <Medication>
            <id value="1"/>
            <code>
              <text value="Beclomethasone/fomoterol"/>
            </code>
          </Medication>
        </contained>
        <status value="active"/>
        <medicationReference>
          <reference value="#1"/>
        </medicationReference>
        <dosage>
          <timing>
            <code>
              <coding>
                <system value="http://hl7.org/fhir/v3/vs/GTSAbbreviation"/>
                <code value="BID"/>
              </coding>
              <text value="BID"/>
            </code>
          </timing>
        </dosage>
      </MedicationStatement>
    </resource>
    <search>
      <mode value="match"/>
    </search>
  </entry>
  <entry>
    <fullUrl value="http://hapi.fhir.org/baseR4/MedicationStatement/247720"/>
    <resource>
      <MedicationStatement>
        <id value="247720"/>
        <meta>
          <versionId value="1"/>
          <lastUpdated value="2019-12-09T13:45:18.263+00:00"/>
          <source value="#NhRxOhz3wr3P4oWA"/>
        </meta>
        <contained>
          <Medication>
            <id value="1"/>
            <code>
              <text value="Beclomethasone/fomoterol"/>
            </code>
          </Medication>
        </contained>
        <status value="active"/>
        <medicationReference>
          <reference value="#1"/>
        </medicationReference>
        <dosage>
          <timing>
            <code>
              <coding>
                <system value="http://hl7.org/fhir/v3/vs/GTSAbbreviation"/>
                <code value="BID"/>
              </coding>
              <text value="BID"/>
            </code>
          </timing>
        </dosage>
      </MedicationStatement>
    </resource>
    <search>
      <mode value="match"/>
    </search>
  </entry>
  <entry>
    <fullUrl value="http://hapi.fhir.org/baseR4/MedicationStatement/247719"/>
    <resource>
      <MedicationStatement>
        <id value="247719"/>
        <meta>
          <versionId value="1"/>
          <lastUpdated value="2019-12-09T13:43:57.743+00:00"/>
          <source value="#ZViEsBTbHr4qUN2v"/>
        </meta>
        <contained>
          <Medication>
            <id value="1"/>
            <code>
              <text value="Beclomethasone/fomoterol"/>
            </code>
          </Medication>
        </contained>
        <status value="active"/>
        <medicationReference>
          <reference value="#1"/>
        </medicationReference>
        <dosage>
          <timing>
            <code>
              <coding>
                <system value="http://hl7.org/fhir/v3/vs/GTSAbbreviation"/>
                <code value="BID"/>
              </coding>
              <text value="BID"/>
            </code>
          </timing>
        </dosage>
      </MedicationStatement>
    </resource>
    <search>
      <mode value="match"/>
    </search>
  </entry>
  <entry>
    <fullUrl value="http://hapi.fhir.org/baseR4/MedicationStatement/247718"/>
    <resource>
      <MedicationStatement>
        <id value="247718"/>
        <meta>
          <versionId value="1"/>
          <lastUpdated value="2019-12-09T13:43:27.576+00:00"/>
          <source value="#3UgpfJiA26JCDfrr"/>
        </meta>
        <contained>
          <Medication>
            <id value="1"/>
            <code>
              <text value="Beclomethasone/fomoterol"/>
            </code>
          </Medication>
        </contained>
        <status value="active"/>
        <medicationReference>
          <reference value="#1"/>
        </medicationReference>
        <dosage>
          <timing>
            <code>
              <coding>
                <system value="http://hl7.org/fhir/v3/vs/GTSAbbreviation"/>
                <code value="BID"/>
              </coding>
              <text value="BID"/>
            </code>
          </timing>
        </dosage>
      </MedicationStatement>
    </resource>
    <search>
      <mode value="match"/>
    </search>
  </entry>
  <entry>
    <fullUrl value="http://hapi.fhir.org/baseR4/MedicationStatement/247717"/>
    <resource>
      <MedicationStatement>
        <id value="247717"/>
        <meta>
          <versionId value="1"/>
          <lastUpdated value="2019-12-09T13:38:19.530+00:00"/>
          <source value="#KyFzK97lNATsXkTx"/>
        </meta>
        <contained>
          <Medication>
            <id value="1"/>
            <code>
              <text value="Beclomethasone/fomoterol"/>
            </code>
          </Medication>
        </contained>
        <status value="active"/>
        <medicationReference>
          <reference value="#1"/>
        </medicationReference>
        <dosage>
          <timing>
            <code>
              <coding>
                <system value="http://hl7.org/fhir/v3/vs/GTSAbbreviation"/>
                <code value="BID"/>
              </coding>
              <text value="BID"/>
            </code>
          </timing>
        </dosage>
      </MedicationStatement>
    </resource>
    <search>
      <mode value="match"/>
    </search>
  </entry>
  <entry>
    <fullUrl value="http://hapi.fhir.org/baseR4/MedicationStatement/247716"/>
    <resource>
      <MedicationStatement>
        <id value="247716"/>
        <meta>
          <versionId value="1"/>
          <lastUpdated value="2019-12-09T13:37:38.842+00:00"/>
          <source value="#uivSbMYfu7jzefAr"/>
        </meta>
        <contained>
          <Medication>
            <id value="1"/>
            <code>
              <text value="Beclomethasone/fomoterol"/>
            </code>
          </Medication>
        </contained>
        <status value="active"/>
        <medicationReference>
          <reference value="#1"/>
        </medicationReference>
        <dosage>
          <timing>
            <code>
              <coding>
                <system value="http://hl7.org/fhir/v3/vs/GTSAbbreviation"/>
                <code value="BID"/>
              </coding>
              <text value="BID"/>
            </code>
          </timing>
        </dosage>
      </MedicationStatement>
    </resource>
    <search>
      <mode value="match"/>
    </search>
  </entry>
  <entry>
    <fullUrl value="http://hapi.fhir.org/baseR4/MedicationStatement/247715"/>
    <resource>
      <MedicationStatement>
        <id value="247715"/>
        <meta>
          <versionId value="1"/>
          <lastUpdated value="2019-12-09T13:31:19.256+00:00"/>
          <source value="#3Nv92sQD6NL4qNpr"/>
        </meta>
        <contained>
          <Medication>
            <id value="1"/>
            <code>
              <text value="Beclomethasone/fomoterol"/>
            </code>
          </Medication>
        </contained>
        <status value="active"/>
        <medicationReference>
          <reference value="#1"/>
        </medicationReference>
        <dosage>
          <timing>
            <code>
              <coding>
                <system value="http://hl7.org/fhir/v3/vs/GTSAbbreviation"/>
                <code value="BID"/>
              </coding>
              <text value="BID"/>
            </code>
          </timing>
        </dosage>
      </MedicationStatement>
    </resource>
    <search>
      <mode value="match"/>
    </search>
  </entry>
  <entry>
    <fullUrl value="http://hapi.fhir.org/baseR4/MedicationStatement/247714"/>
    <resource>
      <MedicationStatement>
        <id value="247714"/>
        <meta>
          <versionId value="1"/>
          <lastUpdated value="2019-12-09T13:31:05.012+00:00"/>
          <source value="#qOF6O0qMAgFh4A0c"/>
        </meta>
        <contained>
          <Medication>
            <id value="1"/>
            <code>
              <text value="Beclomethasone/fomoterol"/>
            </code>
          </Medication>
        </contained>
        <status value="active"/>
        <medicationReference>
          <reference value="#1"/>
        </medicationReference>
        <dosage>
          <timing>
            <code>
              <coding>
                <system value="http://hl7.org/fhir/v3/vs/GTSAbbreviation"/>
                <code value="BID"/>
              </coding>
              <text value="BID"/>
            </code>
          </timing>
        </dosage>
      </MedicationStatement>
    </resource>
    <search>
      <mode value="match"/>
    </search>
  </entry>
  <entry>
    <fullUrl value="http://hapi.fhir.org/baseR4/MedicationStatement/247713"/>
    <resource>
      <MedicationStatement>
        <id value="247713"/>
        <meta>
          <versionId value="1"/>
          <lastUpdated value="2019-12-09T13:30:54.625+00:00"/>
          <source value="#JtG6IcV6VtP60HvI"/>
        </meta>
        <contained>
          <Medication>
            <id value="1"/>
            <code>
              <text value="Beclomethasone/fomoterol"/>
            </code>
          </Medication>
        </contained>
        <status value="active"/>
        <medicationReference>
          <reference value="#1"/>
        </medicationReference>
        <dosage>
          <timing>
            <code>
              <coding>
                <system value="http://hl7.org/fhir/v3/vs/GTSAbbreviation"/>
                <code value="BID"/>
              </coding>
              <text value="BID"/>
            </code>
          </timing>
        </dosage>
      </MedicationStatement>
    </resource>
    <search>
      <mode value="match"/>
    </search>
  </entry>
  <entry>
    <fullUrl value="http://hapi.fhir.org/baseR4/MedicationStatement/247712"/>
    <resource>
      <MedicationStatement>
        <id value="247712"/>
        <meta>
          <versionId value="1"/>
          <lastUpdated value="2019-12-09T13:28:47.322+00:00"/>
          <source value="#a6kyM78HLm5bC50u"/>
        </meta>
        <contained>
          <Medication>
            <id value="1"/>
            <code>
              <text value="Beclomethasone/fomoterol"/>
            </code>
          </Medication>
        </contained>
        <status value="active"/>
        <medicationReference>
          <reference value="#1"/>
        </medicationReference>
        <dosage>
          <timing>
            <code>
              <coding>
                <system value="http://hl7.org/fhir/v3/vs/GTSAbbreviation"/>
                <code value="BID"/>
              </coding>
              <text value="BID"/>
            </code>
          </timing>
        </dosage>
      </MedicationStatement>
    </resource>
    <search>
      <mode value="match"/>
    </search>
  </entry>
  <entry>
    <fullUrl value="http://hapi.fhir.org/baseR4/MedicationStatement/247710"/>
    <resource>
      <MedicationStatement>
        <id value="247710"/>
        <meta>
          <versionId value="1"/>
          <lastUpdated value="2019-12-09T13:16:02.831+00:00"/>
          <source value="#5H76jbPjJSYDldjc"/>
        </meta>
        <contained>
          <Medication>
            <id value="1"/>
            <code>
              <text value="Beclomethasone/fomoterol"/>
            </code>
          </Medication>
        </contained>
        <status value="active"/>
        <medicationReference>
          <reference value="#1"/>
        </medicationReference>
        <dosage>
          <timing>
            <code>
              <coding>
                <system value="http://hl7.org/fhir/v3/vs/GTSAbbreviation"/>
                <code value="BID"/>
              </coding>
              <text value="BID"/>
            </code>
          </timing>
        </dosage>
      </MedicationStatement>
    </resource>
    <search>
      <mode value="match"/>
    </search>
  </entry>
  <entry>
    <fullUrl value="http://hapi.fhir.org/baseR4/MedicationStatement/247707"/>
    <resource>
      <MedicationStatement>
        <id value="247707"/>
        <meta>
          <versionId value="1"/>
          <lastUpdated value="2019-12-09T13:14:53.989+00:00"/>
          <source value="#Q4JZwsi0m6B5PtaJ"/>
          <profile value="http:/sdfds.sdf.com"/>
          <security>
            <system value="syssecurity"/>
            <code value="codesecurity"/>
          </security>
          <tag>
            <system value="systetest"/>
            <code value="codetest"/>
          </tag>
        </meta>
        <identifier>
          <use value="official"/>
          <system value="http://www.bmc.nl/portal/medstatements"/>
          <value value="12345689"/>
        </identifier>
        <basedOn>
          <reference value="MedicationRequest/246761"/>
        </basedOn>
        <partOf>
          <reference value="MedicationAdministration/246771"/>
        </partOf>
        <status value="active"/>
        <statusReason>
          <coding>
            <system value="http://snomed.info/sct"/>
            <code value="33319005"/>
            <display value="Fentanyl"/>
          </coding>
        </statusReason>
        <category>
          <coding>
            <system value="http://terminology.hl7.org/CodeSystem/medication-statement-category"/>
            <code value="inpatient"/>
            <display value="Inpatient"/>
          </coding>
        </category>
        <medicationReference>
          <reference value="Medication/246793"/>
        </medicationReference>
        <subject>
          <reference value="Patient/246798"/>
          <display value="Donald Duck"/>
        </subject>
        <context>
          <reference value="Encounter/246770"/>
          <display value="encounter who leads to this prescription"/>
        </context>
        <effectivePeriod>
          <start value="2015-01-15T14:30:00+01:00"/>
          <end value="2015-01-30T14:30:00+01:00"/>
        </effectivePeriod>
        <dateAsserted value="2015-02-22"/>
        <informationSource>
          <reference value="Patient/246798"/>
          <display value="Donald Duck"/>
        </informationSource>
        <derivedFrom>
          <reference value="MedicationRequest/246761"/>
        </derivedFrom>
        <reasonCode>
          <coding>
            <system value="http://snomed.info/sct"/>
            <code value="32914008"/>
            <display value="Restless Legs"/>
          </coding>
        </reasonCode>
        <reasonReference>
          <reference value="Condition/246780"/>
        </reasonReference>
        <note>
          <text value="Patient indicates they miss the occasional dose"/>
        </note>
        <dosage>
          <sequence value="1"/>
          <text value="1-2 tablets once daily at bedtime as needed for restless legs"/>
          <additionalInstruction>
            <text value="Taking at bedtime"/>
          </additionalInstruction>
          <timing>
            <repeat>
              <frequency value="1"/>
              <period value="1"/>
              <periodUnit value="d"/>
            </repeat>
          </timing>
          <asNeededCodeableConcept>
            <coding>
              <system value="http://snomed.info/sct"/>
              <code value="32914008"/>
              <display value="Restless Legs"/>
            </coding>
          </asNeededCodeableConcept>
          <route>
            <coding>
              <system value="http://snomed.info/sct"/>
              <code value="26643006"/>
              <display value="Oral Route"/>
            </coding>
          </route>
          <doseAndRate>
            <type>
              <coding>
                <system value="http://terminology.hl7.org/CodeSystem/dose-rate-type"/>
                <code value="ordered"/>
                <display value="Ordered"/>
              </coding>
            </type>
            <doseRange>
              <low>
                <value value="1"/>
                <unit value="TAB"/>
                <system value="http://terminology.hl7.org/CodeSystem/v3-orderableDrugForm"/>
                <code value="TAB"/>
              </low>
              <high>
                <value value="2"/>
                <unit value="TAB"/>
                <system value="http://terminology.hl7.org/CodeSystem/v3-orderableDrugForm"/>
                <code value="TAB"/>
              </high>
            </doseRange>
          </doseAndRate>
        </dosage>
      </MedicationStatement>
    </resource>
    <search>
      <mode value="match"/>
    </search>
  </entry>
  <entry>
    <fullUrl value="http://hapi.fhir.org/baseR4/MedicationStatement/247706"/>
    <resource>
      <MedicationStatement>
        <id value="247706"/>
        <meta>
          <versionId value="1"/>
          <lastUpdated value="2019-12-09T13:14:16.603+00:00"/>
          <source value="#heFDE243KxMYNxCH"/>
          <profile value="http:/sdfds.sdf.com"/>
          <security>
            <system value="syssecurity"/>
            <code value="codesecurity"/>
          </security>
          <tag>
            <system value="systetest"/>
            <code value="codetest"/>
          </tag>
        </meta>
        <identifier>
          <use value="official"/>
          <system value="http://www.bmc.nl/portal/medstatements"/>
          <value value="12345689"/>
        </identifier>
        <basedOn>
          <reference value="MedicationRequest/246761"/>
        </basedOn>
        <partOf>
          <reference value="MedicationAdministration/246771"/>
        </partOf>
        <status value="active"/>
        <statusReason>
          <coding>
            <system value="http://snomed.info/sct"/>
            <code value="33319005"/>
            <display value="Fentanyl"/>
          </coding>
        </statusReason>
        <category>
          <coding>
            <system value="http://terminology.hl7.org/CodeSystem/medication-statement-category"/>
            <code value="inpatient"/>
            <display value="Inpatient"/>
          </coding>
        </category>
        <medicationReference>
          <reference value="Medication/246793"/>
        </medicationReference>
        <subject>
          <reference value="Patient/246798"/>
          <display value="Donald Duck"/>
        </subject>
        <context>
          <reference value="Encounter/246770"/>
          <display value="encounter who leads to this prescription"/>
        </context>
        <effectivePeriod>
          <start value="2015-01-15T14:30:00+01:00"/>
          <end value="2015-01-30T14:30:00+01:00"/>
        </effectivePeriod>
        <dateAsserted value="2015-02-22"/>
        <informationSource>
          <reference value="Patient/246798"/>
          <display value="Donald Duck"/>
        </informationSource>
        <derivedFrom>
          <reference value="MedicationRequest/246761"/>
        </derivedFrom>
        <reasonCode>
          <coding>
            <system value="http://snomed.info/sct"/>
            <code value="32914008"/>
            <display value="Restless Legs"/>
          </coding>
        </reasonCode>
        <reasonReference>
          <reference value="Condition/246780"/>
        </reasonReference>
        <note>
          <text value="Patient indicates they miss the occasional dose"/>
        </note>
        <dosage>
          <sequence value="1"/>
          <text value="1-2 tablets once daily at bedtime as needed for restless legs"/>
          <additionalInstruction>
            <text value="Taking at bedtime"/>
          </additionalInstruction>
          <timing>
            <repeat>
              <frequency value="1"/>
              <period value="1"/>
              <periodUnit value="d"/>
            </repeat>
          </timing>
          <asNeededCodeableConcept>
            <coding>
              <system value="http://snomed.info/sct"/>
              <code value="32914008"/>
              <display value="Restless Legs"/>
            </coding>
          </asNeededCodeableConcept>
          <route>
            <coding>
              <system value="http://snomed.info/sct"/>
              <code value="26643006"/>
              <display value="Oral Route"/>
            </coding>
          </route>
          <doseAndRate>
            <type>
              <coding>
                <system value="http://terminology.hl7.org/CodeSystem/dose-rate-type"/>
                <code value="ordered"/>
                <display value="Ordered"/>
              </coding>
            </type>
            <doseRange>
              <low>
                <value value="1"/>
                <unit value="TAB"/>
                <system value="http://terminology.hl7.org/CodeSystem/v3-orderableDrugForm"/>
                <code value="TAB"/>
              </low>
              <high>
                <value value="2"/>
                <unit value="TAB"/>
                <system value="http://terminology.hl7.org/CodeSystem/v3-orderableDrugForm"/>
                <code value="TAB"/>
              </high>
            </doseRange>
          </doseAndRate>
        </dosage>
      </MedicationStatement>
    </resource>
    <search>
      <mode value="match"/>
    </search>
  </entry>
  <entry>
    <fullUrl value="http://hapi.fhir.org/baseR4/MedicationStatement/247697"/>
    <resource>
      <MedicationStatement>
        <id value="247697"/>
        <meta>
          <versionId value="1"/>
          <lastUpdated value="2019-12-09T13:06:13.509+00:00"/>
          <source value="#9SatCnKiw8OQOYLl"/>
        </meta>
        <contained>
          <Medication>
            <id value="1"/>
            <code>
              <text value="Beclomethasone/fomoterol"/>
            </code>
          </Medication>
        </contained>
        <status value="active"/>
        <medicationReference>
          <reference value="#1"/>
        </medicationReference>
        <dosage>
          <timing>
            <code>
              <coding>
                <system value="http://hl7.org/fhir/v3/vs/GTSAbbreviation"/>
                <code value="BID"/>
              </coding>
              <text value="BID"/>
            </code>
          </timing>
        </dosage>
      </MedicationStatement>
    </resource>
    <search>
      <mode value="match"/>
    </search>
  </entry>
  <entry>
    <fullUrl value="http://hapi.fhir.org/baseR4/MedicationStatement/247594"/>
    <resource>
      <MedicationStatement>
        <id value="247594"/>
        <meta>
          <versionId value="1"/>
          <lastUpdated value="2019-12-09T12:49:48.555+00:00"/>
          <source value="#WLbsodCUqAxjCLUX"/>
        </meta>
        <identifier>
          <use value="official"/>
          <system value="http://www.bmc.nl/portal/medstatements"/>
          <value value="12345689"/>
        </identifier>
        <basedOn>
          <reference value="CarePlan/247555"/>
        </basedOn>
        <partOf>
          <reference value="MedicationAdministration/247557"/>
        </partOf>
        <status value="not-taken"/>
        <statusReason>
          <coding>
            <system value="http://snomed.info/sct"/>
            <code value="33319005"/>
            <display value="Fentanyl"/>
          </coding>
        </statusReason>
        <category>
          <coding>
            <system value="http://terminology.hl7.org/CodeSystem/medication-statement-category"/>
            <code value="inpatient"/>
            <display value="Inpatient"/>
          </coding>
        </category>
        <medicationReference>
          <reference value="Medication/247579"/>
        </medicationReference>
        <subject>
          <reference value="Patient/247584"/>
          <display value="Donald Duck"/>
        </subject>
        <context>
          <reference value="Encounter/247556"/>
          <display value="encounter who leads to this prescription"/>
        </context>
        <effectivePeriod>
          <start value="2015-01-15T14:30:00+01:00"/>
          <end value="2015-01-30T14:30:00+01:00"/>
        </effectivePeriod>
        <dateAsserted value="2015-02-22"/>
        <informationSource>
          <reference value="Patient/247584"/>
          <display value="Donald Duck"/>
        </informationSource>
        <derivedFrom>
          <reference value="MedicationRequest/247547"/>
        </derivedFrom>
        <reasonCode>
          <coding>
            <system value="http://snomed.info/sct"/>
            <code value="32914008"/>
            <display value="Restless Legs"/>
          </coding>
        </reasonCode>
        <reasonReference>
          <reference value="Condition/247566"/>
        </reasonReference>
        <note>
          <text value="Patient indicates they miss the occasional dose"/>
        </note>
        <dosage>
          <sequence value="1"/>
          <text value="1-2 tablets once daily at bedtime as needed for restless legs"/>
          <additionalInstruction>
            <text value="Taking at bedtime"/>
          </additionalInstruction>
          <timing>
            <repeat>
              <frequency value="1"/>
              <period value="1"/>
              <periodUnit value="d"/>
            </repeat>
          </timing>
          <asNeededCodeableConcept>
            <coding>
              <system value="http://snomed.info/sct"/>
              <code value="32914008"/>
              <display value="Restless Legs"/>
            </coding>
          </asNeededCodeableConcept>
          <route>
            <coding>
              <system value="http://snomed.info/sct"/>
              <code value="26643006"/>
              <display value="Oral Route"/>
            </coding>
          </route>
          <doseAndRate>
            <type>
              <coding>
                <system value="http://terminology.hl7.org/CodeSystem/dose-rate-type"/>
                <code value="ordered"/>
                <display value="Ordered"/>
              </coding>
            </type>
            <doseRange>
              <low>
                <value value="1"/>
                <unit value="TAB"/>
                <system value="http://terminology.hl7.org/CodeSystem/v3-orderableDrugForm"/>
                <code value="TAB"/>
              </low>
              <high>
                <value value="2"/>
                <unit value="TAB"/>
                <system value="http://terminology.hl7.org/CodeSystem/v3-orderableDrugForm"/>
                <code value="TAB"/>
              </high>
            </doseRange>
          </doseAndRate>
        </dosage>
      </MedicationStatement>
    </resource>
    <search>
      <mode value="match"/>
    </search>
  </entry>
  <entry>
    <fullUrl value="http://hapi.fhir.org/baseR4/MedicationStatement/247593"/>
    <resource>
      <MedicationStatement>
        <id value="247593"/>
        <meta>
          <versionId value="1"/>
          <lastUpdated value="2019-12-09T12:49:48.194+00:00"/>
          <source value="#veRtl3PeFjDXKedp"/>
        </meta>
        <identifier>
          <use value="official"/>
          <system value="http://www.bmc.nl/portal/medstatements"/>
          <value value="12345689"/>
        </identifier>
        <basedOn>
          <reference value="CarePlan/247555"/>
        </basedOn>
        <partOf>
          <reference value="MedicationAdministration/247557"/>
        </partOf>
        <status value="unknown"/>
        <statusReason>
          <coding>
            <system value="http://snomed.info/sct"/>
            <code value="33319005"/>
            <display value="Fentanyl"/>
          </coding>
        </statusReason>
        <category>
          <coding>
            <system value="http://terminology.hl7.org/CodeSystem/medication-statement-category"/>
            <code value="inpatient"/>
            <display value="Inpatient"/>
          </coding>
        </category>
        <medicationReference>
          <reference value="Medication/247579"/>
        </medicationReference>
        <subject>
          <reference value="Patient/247584"/>
          <display value="Donald Duck"/>
        </subject>
        <context>
          <reference value="Encounter/247556"/>
          <display value="encounter who leads to this prescription"/>
        </context>
        <effectivePeriod>
          <start value="2015-01-15T14:30:00+01:00"/>
          <end value="2015-01-30T14:30:00+01:00"/>
        </effectivePeriod>
        <dateAsserted value="2015-02-22"/>
        <informationSource>
          <reference value="Patient/247584"/>
          <display value="Donald Duck"/>
        </informationSource>
        <derivedFrom>
          <reference value="MedicationRequest/247547"/>
        </derivedFrom>
        <reasonCode>
          <coding>
            <system value="http://snomed.info/sct"/>
            <code value="32914008"/>
            <display value="Restless Legs"/>
          </coding>
        </reasonCode>
        <reasonReference>
          <reference value="Condition/247566"/>
        </reasonReference>
        <note>
          <text value="Patient indicates they miss the occasional dose"/>
        </note>
        <dosage>
          <sequence value="1"/>
          <text value="1-2 tablets once daily at bedtime as needed for restless legs"/>
          <additionalInstruction>
            <text value="Taking at bedtime"/>
          </additionalInstruction>
          <timing>
            <repeat>
              <frequency value="1"/>
              <period value="1"/>
              <periodUnit value="d"/>
            </repeat>
          </timing>
          <asNeededCodeableConcept>
            <coding>
              <system value="http://snomed.info/sct"/>
              <code value="32914008"/>
              <display value="Restless Legs"/>
            </coding>
          </asNeededCodeableConcept>
          <route>
            <coding>
              <system value="http://snomed.info/sct"/>
              <code value="26643006"/>
              <display value="Oral Route"/>
            </coding>
          </route>
          <doseAndRate>
            <type>
              <coding>
                <system value="http://terminology.hl7.org/CodeSystem/dose-rate-type"/>
                <code value="ordered"/>
                <display value="Ordered"/>
              </coding>
            </type>
            <doseRange>
              <low>
                <value value="1"/>
                <unit value="TAB"/>
                <system value="http://terminology.hl7.org/CodeSystem/v3-orderableDrugForm"/>
                <code value="TAB"/>
              </low>
              <high>
                <value value="2"/>
                <unit value="TAB"/>
                <system value="http://terminology.hl7.org/CodeSystem/v3-orderableDrugForm"/>
                <code value="TAB"/>
              </high>
            </doseRange>
          </doseAndRate>
        </dosage>
      </MedicationStatement>
    </resource>
    <search>
      <mode value="match"/>
    </search>
  </entry>
  <entry>
    <fullUrl value="http://hapi.fhir.org/baseR4/MedicationStatement/247592"/>
    <resource>
      <MedicationStatement>
        <id value="247592"/>
        <meta>
          <versionId value="1"/>
          <lastUpdated value="2019-12-09T12:49:47.832+00:00"/>
          <source value="#L8vVp55jTlVrIQow"/>
        </meta>
        <identifier>
          <use value="official"/>
          <system value="http://www.bmc.nl/portal/medstatements"/>
          <value value="12345689"/>
        </identifier>
        <basedOn>
          <reference value="CarePlan/247555"/>
        </basedOn>
        <partOf>
          <reference value="MedicationAdministration/247557"/>
        </partOf>
        <status value="on-hold"/>
        <statusReason>
          <coding>
            <system value="http://snomed.info/sct"/>
            <code value="33319005"/>
            <display value="Fentanyl"/>
          </coding>
        </statusReason>
        <category>
          <coding>
            <system value="http://terminology.hl7.org/CodeSystem/medication-statement-category"/>
            <code value="inpatient"/>
            <display value="Inpatient"/>
          </coding>
        </category>
        <medicationReference>
          <reference value="Medication/247579"/>
        </medicationReference>
        <subject>
          <reference value="Patient/247584"/>
          <display value="Donald Duck"/>
        </subject>
        <context>
          <reference value="Encounter/247556"/>
          <display value="encounter who leads to this prescription"/>
        </context>
        <effectivePeriod>
          <start value="2015-01-15T14:30:00+01:00"/>
          <end value="2015-01-30T14:30:00+01:00"/>
        </effectivePeriod>
        <dateAsserted value="2015-02-22"/>
        <informationSource>
          <reference value="Patient/247584"/>
          <display value="Donald Duck"/>
        </informationSource>
        <derivedFrom>
          <reference value="MedicationRequest/247547"/>
        </derivedFrom>
        <reasonCode>
          <coding>
            <system value="http://snomed.info/sct"/>
            <code value="32914008"/>
            <display value="Restless Legs"/>
          </coding>
        </reasonCode>
        <reasonReference>
          <reference value="Condition/247566"/>
        </reasonReference>
        <note>
          <text value="Patient indicates they miss the occasional dose"/>
        </note>
        <dosage>
          <sequence value="1"/>
          <text value="1-2 tablets once daily at bedtime as needed for restless legs"/>
          <additionalInstruction>
            <text value="Taking at bedtime"/>
          </additionalInstruction>
          <timing>
            <repeat>
              <frequency value="1"/>
              <period value="1"/>
              <periodUnit value="d"/>
            </repeat>
          </timing>
          <asNeededCodeableConcept>
            <coding>
              <system value="http://snomed.info/sct"/>
              <code value="32914008"/>
              <display value="Restless Legs"/>
            </coding>
          </asNeededCodeableConcept>
          <route>
            <coding>
              <system value="http://snomed.info/sct"/>
              <code value="26643006"/>
              <display value="Oral Route"/>
            </coding>
          </route>
          <doseAndRate>
            <type>
              <coding>
                <system value="http://terminology.hl7.org/CodeSystem/dose-rate-type"/>
                <code value="ordered"/>
                <display value="Ordered"/>
              </coding>
            </type>
            <doseRange>
              <low>
                <value value="1"/>
                <unit value="TAB"/>
                <system value="http://terminology.hl7.org/CodeSystem/v3-orderableDrugForm"/>
                <code value="TAB"/>
              </low>
              <high>
                <value value="2"/>
                <unit value="TAB"/>
                <system value="http://terminology.hl7.org/CodeSystem/v3-orderableDrugForm"/>
                <code value="TAB"/>
              </high>
            </doseRange>
          </doseAndRate>
        </dosage>
      </MedicationStatement>
    </resource>
    <search>
      <mode value="match"/>
    </search>
  </entry>
  <entry>
    <fullUrl value="http://hapi.fhir.org/baseR4/MedicationStatement/247591"/>
    <resource>
      <MedicationStatement>
        <id value="247591"/>
        <meta>
          <versionId value="1"/>
          <lastUpdated value="2019-12-09T12:49:47.470+00:00"/>
          <source value="#EtPM683nqnBMKjW2"/>
        </meta>
        <identifier>
          <use value="official"/>
          <system value="http://www.bmc.nl/portal/medstatements"/>
          <value value="12345689"/>
        </identifier>
        <basedOn>
          <reference value="CarePlan/247555"/>
        </basedOn>
        <partOf>
          <reference value="Observation/247550"/>
        </partOf>
        <status value="stopped"/>
        <statusReason>
          <coding>
            <system value="http://snomed.info/sct"/>
            <code value="33319005"/>
            <display value="Fentanyl"/>
          </coding>
        </statusReason>
        <category>
          <coding>
            <system value="http://terminology.hl7.org/CodeSystem/medication-statement-category"/>
            <code value="inpatient"/>
            <display value="Inpatient"/>
          </coding>
        </category>
        <medicationReference>
          <reference value="Medication/247579"/>
        </medicationReference>
        <subject>
          <reference value="Patient/247584"/>
          <display value="Donald Duck"/>
        </subject>
        <context>
          <reference value="Encounter/247556"/>
          <display value="encounter who leads to this prescription"/>
        </context>
        <effectivePeriod>
          <start value="2015-01-15T14:30:00+01:00"/>
          <end value="2015-01-30T14:30:00+01:00"/>
        </effectivePeriod>
        <dateAsserted value="2015-02-22"/>
        <informationSource>
          <reference value="Patient/247584"/>
          <display value="Donald Duck"/>
        </informationSource>
        <derivedFrom>
          <reference value="MedicationRequest/247547"/>
        </derivedFrom>
        <reasonCode>
          <coding>
            <system value="http://snomed.info/sct"/>
            <code value="32914008"/>
            <display value="Restless Legs"/>
          </coding>
        </reasonCode>
        <reasonReference>
          <reference value="Condition/247566"/>
        </reasonReference>
        <note>
          <text value="Patient indicates they miss the occasional dose"/>
        </note>
        <dosage>
          <sequence value="1"/>
          <text value="1-2 tablets once daily at bedtime as needed for restless legs"/>
          <additionalInstruction>
            <text value="Taking at bedtime"/>
          </additionalInstruction>
          <timing>
            <repeat>
              <frequency value="1"/>
              <period value="1"/>
              <periodUnit value="d"/>
            </repeat>
          </timing>
          <asNeededCodeableConcept>
            <coding>
              <system value="http://snomed.info/sct"/>
              <code value="32914008"/>
              <display value="Restless Legs"/>
            </coding>
          </asNeededCodeableConcept>
          <route>
            <coding>
              <system value="http://snomed.info/sct"/>
              <code value="26643006"/>
              <display value="Oral Route"/>
            </coding>
          </route>
          <doseAndRate>
            <type>
              <coding>
                <system value="http://terminology.hl7.org/CodeSystem/dose-rate-type"/>
                <code value="ordered"/>
                <display value="Ordered"/>
              </coding>
            </type>
            <doseRange>
              <low>
                <value value="1"/>
                <unit value="TAB"/>
                <system value="http://terminology.hl7.org/CodeSystem/v3-orderableDrugForm"/>
                <code value="TAB"/>
              </low>
              <high>
                <value value="2"/>
                <unit value="TAB"/>
                <system value="http://terminology.hl7.org/CodeSystem/v3-orderableDrugForm"/>
                <code value="TAB"/>
              </high>
            </doseRange>
          </doseAndRate>
        </dosage>
      </MedicationStatement>
    </resource>
    <search>
      <mode value="match"/>
    </search>
  </entry>
  <entry>
    <fullUrl value="http://hapi.fhir.org/baseR4/MedicationStatement/247590"/>
    <resource>
      <MedicationStatement>
        <id value="247590"/>
        <meta>
          <versionId value="1"/>
          <lastUpdated value="2019-12-09T12:49:47.118+00:00"/>
          <source value="#yfj8OIPATCXYgXP1"/>
        </meta>
        <identifier>
          <use value="official"/>
          <system value="http://www.bmc.nl/portal/medstatements"/>
          <value value="12345689"/>
        </identifier>
        <basedOn>
          <reference value="CarePlan/247555"/>
        </basedOn>
        <partOf>
          <reference value="Procedure/247551"/>
        </partOf>
        <status value="intended"/>
        <statusReason>
          <coding>
            <system value="http://snomed.info/sct"/>
            <code value="33319005"/>
            <display value="Fentanyl"/>
          </coding>
        </statusReason>
        <category>
          <coding>
            <system value="http://terminology.hl7.org/CodeSystem/medication-statement-category"/>
            <code value="inpatient"/>
            <display value="Inpatient"/>
          </coding>
        </category>
        <medicationReference>
          <reference value="Medication/247579"/>
        </medicationReference>
        <subject>
          <reference value="Patient/247584"/>
          <display value="Donald Duck"/>
        </subject>
        <context>
          <reference value="Encounter/247556"/>
          <display value="encounter who leads to this prescription"/>
        </context>
        <effectivePeriod>
          <start value="2015-01-15T14:30:00+01:00"/>
          <end value="2015-01-30T14:30:00+01:00"/>
        </effectivePeriod>
        <dateAsserted value="2015-02-22"/>
        <informationSource>
          <reference value="Patient/247584"/>
          <display value="Donald Duck"/>
        </informationSource>
        <derivedFrom>
          <reference value="MedicationRequest/247547"/>
        </derivedFrom>
        <reasonCode>
          <coding>
            <system value="http://snomed.info/sct"/>
            <code value="32914008"/>
            <display value="Restless Legs"/>
          </coding>
        </reasonCode>
        <reasonReference>
          <reference value="Condition/247566"/>
        </reasonReference>
        <note>
          <text value="Patient indicates they miss the occasional dose"/>
        </note>
        <dosage>
          <sequence value="1"/>
          <text value="1-2 tablets once daily at bedtime as needed for restless legs"/>
          <additionalInstruction>
            <text value="Taking at bedtime"/>
          </additionalInstruction>
          <timing>
            <repeat>
              <frequency value="1"/>
              <period value="1"/>
              <periodUnit value="d"/>
            </repeat>
          </timing>
          <asNeededCodeableConcept>
            <coding>
              <system value="http://snomed.info/sct"/>
              <code value="32914008"/>
              <display value="Restless Legs"/>
            </coding>
          </asNeededCodeableConcept>
          <route>
            <coding>
              <system value="http://snomed.info/sct"/>
              <code value="26643006"/>
              <display value="Oral Route"/>
            </coding>
          </route>
          <doseAndRate>
            <type>
              <coding>
                <system value="http://terminology.hl7.org/CodeSystem/dose-rate-type"/>
                <code value="ordered"/>
                <display value="Ordered"/>
              </coding>
            </type>
            <doseRange>
              <low>
                <value value="1"/>
                <unit value="TAB"/>
                <system value="http://terminology.hl7.org/CodeSystem/v3-orderableDrugForm"/>
                <code value="TAB"/>
              </low>
              <high>
                <value value="2"/>
                <unit value="TAB"/>
                <system value="http://terminology.hl7.org/CodeSystem/v3-orderableDrugForm"/>
                <code value="TAB"/>
              </high>
            </doseRange>
          </doseAndRate>
        </dosage>
      </MedicationStatement>
    </resource>
    <search>
      <mode value="match"/>
    </search>
  </entry>
  <entry>
    <fullUrl value="http://hapi.fhir.org/baseR4/Encounter/246770"/>
    <resource>
      <Encounter>
        <id value="246770"/>
        <meta>
          <versionId value="1"/>
          <lastUpdated value="2019-12-09T10:06:39.743+00:00"/>
          <source value="#sfdvjjwgapfoub8S"/>
        </meta>
        <identifier>
          <use value="official"/>
        </identifier>
        <identifier>
          <system value="http://www.bmc.nl/portal/medstatements"/>
          <value value="12345689"/>
        </identifier>
      </Encounter>
    </resource>
    <search>
      <mode value="include"/>
    </search>
  </entry>
  <entry>
    <fullUrl value="http://hapi.fhir.org/baseR4/Patient/247584"/>
    <resource>
      <Patient>
        <id value="247584"/>
        <meta>
          <versionId value="1"/>
          <lastUpdated value="2019-12-09T12:49:44.641+00:00"/>
          <source value="#OnpMv54qLfQzaSDi"/>
        </meta>
        <text>
          <status value="generated"/>
          <div>
            <div class="hapiHeaderText">Mrs Katerina 
                     <b>NGUYEN </b>
                  </div>
            <table class="hapiPropertyTable">
              <tbody>
                <tr>
                  <td>Identifier</td>
                  <td>49476534</td>
                </tr>
                <tr>
                  <td>Address</td>
                  <td>
                    <span>Unit 7 </span>
                    <br/>
                    <span>76 Clydesdale St </span>
                    <br/>
                    <span>Como </span>
                    <span>WA </span>
                    <span>Australia </span>
                  </td>
                </tr>
                <tr>
                  <td>Date of birth</td>
                  <td>
                    <span>18 August 1979</span>
                  </td>
                </tr>
              </tbody>
            </table>
          </div>
        </text>
        <identifier>
          <value value="49476534"/>
        </identifier>
        <active value="true"/>
        <name>
          <use value="usual"/>
          <family value="Nguyen"/>
          <given value="Katerina"/>
          <prefix value="Mrs"/>
        </name>
        <telecom>
          <system value="phone"/>
          <value value="0403 823 832"/>
          <use value="mobile"/>
          <rank value="1"/>
        </telecom>
        <telecom>
          <system value="phone"/>
          <value value="08 9398 1165"/>
          <use value="home"/>
          <rank value="2"/>
        </telecom>
        <telecom>
          <system value="phone"/>
          <value value="08 9876 5432"/>
          <use value="work"/>
          <rank value="3"/>
        </telecom>
        <telecom>
          <system value="email"/>
          <value value="kate.nguyen79@gmail.com"/>
          <use value="work"/>
          <rank value="4"/>
        </telecom>
        <gender value="female"/>
        <birthDate value="1979-08-18"/>
        <deceasedBoolean value="true"/>
        <address>
          <use value="home"/>
          <line value="Unit 7"/>
          <line value="76 Clydesdale St"/>
          <city value="Como"/>
          <state value="WA"/>
          <postalCode value="6152"/>
          <country value="Australia"/>
        </address>
        <contact>
          <relationship>
            <coding>
              <system value="http://hl7.org/fhir/ValueSet/patient-contact-relationship"/>
              <code value="partner"/>
              <display value="Partner"/>
            </coding>
          </relationship>
          <name>
            <use value="usual"/>
            <family value="Nguyen"/>
            <given value="Jimmy"/>
            <prefix value="Mr"/>
          </name>
          <telecom>
            <system value="phone"/>
            <value value="0403 123 456"/>
            <use value="mobile"/>
            <rank value="1"/>
          </telecom>
          <telecom>
            <system value="phone"/>
            <value value="08 4564 3214"/>
            <use value="home"/>
            <rank value="2"/>
          </telecom>
          <telecom>
            <system value="phone"/>
            <value value="08 9994 5547"/>
            <use value="work"/>
            <rank value="3"/>
          </telecom>
          <telecom>
            <system value="email"/>
            <value value="jim.nguyen79@work.com"/>
            <use value="work"/>
            <rank value="4"/>
          </telecom>
          <address>
            <use value="home"/>
            <line value="Unit 7"/>
            <line value="76 Clydesdale St"/>
            <city value="Como"/>
            <state value="WA"/>
            <postalCode value="6152"/>
            <country value="Australia"/>
          </address>
          <gender value="male"/>
        </contact>
      </Patient>
    </resource>
    <search>
      <mode value="include"/>
    </search>
  </entry>
  <entry>
    <fullUrl value="http://hapi.fhir.org/baseR4/Encounter/247556"/>
    <resource>
      <Encounter>
        <id value="247556"/>
        <meta>
          <versionId value="1"/>
          <lastUpdated value="2019-12-09T12:49:33.443+00:00"/>
          <source value="#y6GR10F11OT3K3Kw"/>
        </meta>
        <identifier>
          <use value="official"/>
        </identifier>
        <identifier>
          <system value="http://www.bmc.nl/portal/medstatements"/>
          <value value="12345689"/>
        </identifier>
      </Encounter>
    </resource>
    <search>
      <mode value="include"/>
    </search>
  </entry>
  <entry>
    <fullUrl value="http://hapi.fhir.org/baseR4/Patient/246798"/>
    <resource>
      <Patient>
        <id value="246798"/>
        <meta>
          <versionId value="1"/>
          <lastUpdated value="2019-12-09T10:06:50.569+00:00"/>
          <source value="#ymfZxcf4oqW9NZfM"/>
        </meta>
        <text>
          <status value="generated"/>
          <div>
            <div class="hapiHeaderText">Mrs Katerina 
                     <b>NGUYEN </b>
                  </div>
            <table class="hapiPropertyTable">
              <tbody>
                <tr>
                  <td>Identifier</td>
                  <td>49476534</td>
                </tr>
                <tr>
                  <td>Address</td>
                  <td>
                    <span>Unit 7 </span>
                    <br/>
                    <span>76 Clydesdale St </span>
                    <br/>
                    <span>Como </span>
                    <span>WA </span>
                    <span>Australia </span>
                  </td>
                </tr>
                <tr>
                  <td>Date of birth</td>
                  <td>
                    <span>18 August 1979</span>
                  </td>
                </tr>
              </tbody>
            </table>
          </div>
        </text>
        <identifier>
          <value value="49476534"/>
        </identifier>
        <active value="true"/>
        <name>
          <use value="usual"/>
          <family value="Nguyen"/>
          <given value="Katerina"/>
          <prefix value="Mrs"/>
        </name>
        <telecom>
          <system value="phone"/>
          <value value="0403 823 832"/>
          <use value="mobile"/>
          <rank value="1"/>
        </telecom>
        <telecom>
          <system value="phone"/>
          <value value="08 9398 1165"/>
          <use value="home"/>
          <rank value="2"/>
        </telecom>
        <telecom>
          <system value="phone"/>
          <value value="08 9876 5432"/>
          <use value="work"/>
          <rank value="3"/>
        </telecom>
        <telecom>
          <system value="email"/>
          <value value="kate.nguyen79@gmail.com"/>
          <use value="work"/>
          <rank value="4"/>
        </telecom>
        <gender value="female"/>
        <birthDate value="1979-08-18"/>
        <deceasedBoolean value="true"/>
        <address>
          <use value="home"/>
          <line value="Unit 7"/>
          <line value="76 Clydesdale St"/>
          <city value="Como"/>
          <state value="WA"/>
          <postalCode value="6152"/>
          <country value="Australia"/>
        </address>
        <contact>
          <relationship>
            <coding>
              <system value="http://hl7.org/fhir/ValueSet/patient-contact-relationship"/>
              <code value="partner"/>
              <display value="Partner"/>
            </coding>
          </relationship>
          <name>
            <use value="usual"/>
            <family value="Nguyen"/>
            <given value="Jimmy"/>
            <prefix value="Mr"/>
          </name>
          <telecom>
            <system value="phone"/>
            <value value="0403 123 456"/>
            <use value="mobile"/>
            <rank value="1"/>
          </telecom>
          <telecom>
            <system value="phone"/>
            <value value="08 4564 3214"/>
            <use value="home"/>
            <rank value="2"/>
          </telecom>
          <telecom>
            <system value="phone"/>
            <value value="08 9994 5547"/>
            <use value="work"/>
            <rank value="3"/>
          </telecom>
          <telecom>
            <system value="email"/>
            <value value="jim.nguyen79@work.com"/>
            <use value="work"/>
            <rank value="4"/>
          </telecom>
          <address>
            <use value="home"/>
            <line value="Unit 7"/>
            <line value="76 Clydesdale St"/>
            <city value="Como"/>
            <state value="WA"/>
            <postalCode value="6152"/>
            <country value="Australia"/>
          </address>
          <gender value="male"/>
        </contact>
      </Patient>
    </resource>
    <search>
      <mode value="include"/>
    </search>
  </entry>
</Bundle>
