<?xml version="1.0" encoding="UTF-8"?>
<Bundle>
  <id value="15792624-5f41-4e1b-89cd-99bb6d64f628"/>
  <meta>
    <lastUpdated value="2020-05-31T19:18:49.635+00:00"/>
  </meta>
  <type value="searchset"/>
  <total value="5700"/>
  <link>
    <relation value="self"/>
    <url value="http://hapi.fhir.org/baseR4?_getpages=15792624-5f41-4e1b-89cd-99bb6d64f628&amp;_getpagesoffset=4100&amp;_count=20&amp;_format=xml&amp;_pretty=true&amp;_bundletype=searchset"/>
  </link>
  <link>
    <relation value="next"/>
    <url value="http://hapi.fhir.org/baseR4?_getpages=15792624-5f41-4e1b-89cd-99bb6d64f628&amp;_getpagesoffset=4120&amp;_count=20&amp;_format=xml&amp;_pretty=true&amp;_bundletype=searchset"/>
  </link>
  <link>
    <relation value="previous"/>
    <url value="http://hapi.fhir.org/baseR4?_getpages=15792624-5f41-4e1b-89cd-99bb6d64f628&amp;_getpagesoffset=4080&amp;_count=20&amp;_format=xml&amp;_pretty=true&amp;_bundletype=searchset"/>
  </link>
  <entry>
    <fullUrl value="http://hapi.fhir.org/baseR4/MedicationStatement/247589"/>
    <resource>
      <MedicationStatement>
        <id value="247589"/>
        <meta>
          <versionId value="1"/>
          <lastUpdated value="2019-12-09T12:49:46.754+00:00"/>
          <source value="#bzNUXDos3WTuRenM"/>
        </meta>
        <identifier>
          <use value="official"/>
          <system value="http://www.bmc.nl/portal/medstatements"/>
          <value value="12345689"/>
        </identifier>
        <basedOn>
          <reference value="ServiceRequest/247561"/>
        </basedOn>
        <partOf>
          <reference value="MedicationStatement/247558"/>
        </partOf>
        <status value="entered-in-error"/>
        <statusReason>
          <coding>
            <system value="http://snomed.info/sct"/>
            <code value="33319005"/>
            <display value="Fentanyl"/>
          </coding>
        </statusReason>
        <category>
          <coding>
            <system value="http://terminology.hl7.org/CodeSystem/medication-statement-category"/>
            <code value="inpatient"/>
            <display value="Inpatient"/>
          </coding>
        </category>
        <medicationReference>
          <reference value="Medication/247579"/>
        </medicationReference>
        <subject>
          <reference value="Patient/247584"/>
          <display value="Donald Duck"/>
        </subject>
        <context>
          <reference value="Encounter/247556"/>
          <display value="encounter who leads to this prescription"/>
        </context>
        <effectivePeriod>
          <start value="2015-01-15T14:30:00+01:00"/>
          <end value="2015-01-30T14:30:00+01:00"/>
        </effectivePeriod>
        <dateAsserted value="2015-02-22"/>
        <informationSource>
          <reference value="PractitionerRole/247552"/>
          <display value="Donald Duck"/>
        </informationSource>
        <derivedFrom>
          <reference value="MedicationRequest/247547"/>
        </derivedFrom>
        <reasonCode>
          <coding>
            <system value="http://snomed.info/sct"/>
            <code value="32914008"/>
            <display value="Restless Legs"/>
          </coding>
        </reasonCode>
        <reasonReference>
          <reference value="DiagnosticReport/247562"/>
        </reasonReference>
        <note>
          <text value="Patient indicates they miss the occasional dose"/>
        </note>
        <dosage>
          <sequence value="1"/>
          <text value="1-2 tablets once daily at bedtime as needed for restless legs"/>
          <additionalInstruction>
            <text value="Taking at bedtime"/>
          </additionalInstruction>
          <timing>
            <repeat>
              <frequency value="1"/>
              <period value="1"/>
              <periodUnit value="d"/>
            </repeat>
          </timing>
          <asNeededCodeableConcept>
            <coding>
              <system value="http://snomed.info/sct"/>
              <code value="32914008"/>
              <display value="Restless Legs"/>
            </coding>
          </asNeededCodeableConcept>
          <route>
            <coding>
              <system value="http://snomed.info/sct"/>
              <code value="26643006"/>
              <display value="Oral Route"/>
            </coding>
          </route>
          <doseAndRate>
            <type>
              <coding>
                <system value="http://terminology.hl7.org/CodeSystem/dose-rate-type"/>
                <code value="ordered"/>
                <display value="Ordered"/>
              </coding>
            </type>
            <doseRange>
              <low>
                <value value="1"/>
                <unit value="TAB"/>
                <system value="http://terminology.hl7.org/CodeSystem/v3-orderableDrugForm"/>
                <code value="TAB"/>
              </low>
              <high>
                <value value="2"/>
                <unit value="TAB"/>
                <system value="http://terminology.hl7.org/CodeSystem/v3-orderableDrugForm"/>
                <code value="TAB"/>
              </high>
            </doseRange>
          </doseAndRate>
        </dosage>
      </MedicationStatement>
    </resource>
    <search>
      <mode value="match"/>
    </search>
  </entry>
  <entry>
    <fullUrl value="http://hapi.fhir.org/baseR4/MedicationStatement/590164"/>
    <resource>
      <MedicationStatement>
        <id value="590164"/>
        <meta>
          <versionId value="1"/>
          <lastUpdated value="2020-01-14T06:19:00.930+00:00"/>
          <source value="#bmtEz8sb9pfLhTXY"/>
        </meta>
        <text>
          <status value="generated"/>
          <div>chlortalidone 15 mg once daily</div>
        </text>
        <status value="active"/>
        <medicationCodeableConcept>
          <coding>
            <system value="http://snomed.info/ct"/>
            <code value="376321007"/>
            <display value="chlortalidone 15 mg"/>
          </coding>
          <text value="chlortalidone 15 mg"/>
        </medicationCodeableConcept>
        <subject>
          <reference value="Patient/590106"/>
        </subject>
        <dosage>
          <text value="once daily"/>
          <timing>
            <repeat>
              <frequency value="1"/>
              <period value="1"/>
              <periodUnit value="d"/>
            </repeat>
          </timing>
        </dosage>
      </MedicationStatement>
    </resource>
    <search>
      <mode value="match"/>
    </search>
  </entry>
  <entry>
    <fullUrl value="http://hapi.fhir.org/baseR4/MedicationStatement/590174"/>
    <resource>
      <MedicationStatement>
        <id value="590174"/>
        <meta>
          <versionId value="1"/>
          <lastUpdated value="2020-01-14T06:19:00.930+00:00"/>
          <source value="#bmtEz8sb9pfLhTXY"/>
        </meta>
        <text>
          <status value="generated"/>
          <div>terbinafine 250mg once daily</div>
        </text>
        <status value="active"/>
        <medicationCodeableConcept>
          <coding>
            <system value="http://snomed.info/ct"/>
            <code value="324718007"/>
            <display value="terbinafine 250mg"/>
          </coding>
          <text value="terbinafine 250mg"/>
        </medicationCodeableConcept>
        <subject>
          <reference value="Patient/590106"/>
        </subject>
        <dosage>
          <text value="1 tab once daily"/>
          <timing>
            <repeat>
              <frequency value="1"/>
              <period value="1"/>
              <periodUnit value="d"/>
            </repeat>
          </timing>
          <asNeededBoolean value="true"/>
        </dosage>
      </MedicationStatement>
    </resource>
    <search>
      <mode value="match"/>
    </search>
  </entry>
  <entry>
    <fullUrl value="http://hapi.fhir.org/baseR4/MedicationStatement/590163"/>
    <resource>
      <MedicationStatement>
        <id value="590163"/>
        <meta>
          <versionId value="1"/>
          <lastUpdated value="2020-01-14T06:19:00.930+00:00"/>
          <source value="#bmtEz8sb9pfLhTXY"/>
        </meta>
        <text>
          <status value="generated"/>
          <div>carvedilol 25 mg twice daily</div>
        </text>
        <status value="active"/>
        <medicationCodeableConcept>
          <coding>
            <system value="http://snomed.info/ct"/>
            <code value="318632005"/>
            <display value="carvedilol 25 mg"/>
          </coding>
          <text value="carvedilol 25 mg"/>
        </medicationCodeableConcept>
        <subject>
          <reference value="Patient/590106"/>
        </subject>
        <dosage>
          <text value="twice daily"/>
          <timing>
            <repeat>
              <frequency value="2"/>
              <period value="1"/>
              <periodUnit value="d"/>
            </repeat>
          </timing>
        </dosage>
      </MedicationStatement>
    </resource>
    <search>
      <mode value="match"/>
    </search>
  </entry>
  <entry>
    <fullUrl value="http://hapi.fhir.org/baseR4/MedicationStatement/590173"/>
    <resource>
      <MedicationStatement>
        <id value="590173"/>
        <meta>
          <versionId value="1"/>
          <lastUpdated value="2020-01-14T06:19:00.930+00:00"/>
          <source value="#bmtEz8sb9pfLhTXY"/>
        </meta>
        <text>
          <status value="generated"/>
          <div>simvastatin 40mg once daily</div>
        </text>
        <status value="active"/>
        <medicationCodeableConcept>
          <coding>
            <system value="http://snomed.info/ct"/>
            <code value="429374003"/>
            <display value="simvastatin 40mg"/>
          </coding>
          <text value="simvastatin 40mg"/>
        </medicationCodeableConcept>
        <subject>
          <reference value="Patient/590106"/>
        </subject>
        <dosage>
          <text value="1 tab once daily"/>
          <timing>
            <repeat>
              <frequency value="1"/>
              <period value="1"/>
              <periodUnit value="d"/>
            </repeat>
          </timing>
          <asNeededBoolean value="true"/>
        </dosage>
      </MedicationStatement>
    </resource>
    <search>
      <mode value="match"/>
    </search>
  </entry>
  <entry>
    <fullUrl value="http://hapi.fhir.org/baseR4/MedicationStatement/590162"/>
    <resource>
      <MedicationStatement>
        <id value="590162"/>
        <meta>
          <versionId value="1"/>
          <lastUpdated value="2020-01-14T06:19:00.930+00:00"/>
          <source value="#bmtEz8sb9pfLhTXY"/>
        </meta>
        <text>
          <status value="generated"/>
          <div>beclomethasone 2 puffs twice daily</div>
        </text>
        <status value="active"/>
        <medicationCodeableConcept>
          <coding>
            <system value="http://snomed.info/ct"/>
            <code value="376733004"/>
            <display value="beclomethasone dipropionate 40mcg aerosol"/>
          </coding>
          <text value="beclomethasone dipropionate 40mcg aerosol"/>
        </medicationCodeableConcept>
        <subject>
          <reference value="Patient/590106"/>
        </subject>
        <dosage>
          <text value="2 puffs twice daily"/>
          <timing>
            <repeat>
              <frequency value="2"/>
              <period value="1"/>
              <periodUnit value="d"/>
            </repeat>
          </timing>
          <asNeededBoolean value="false"/>
        </dosage>
      </MedicationStatement>
    </resource>
    <search>
      <mode value="match"/>
    </search>
  </entry>
  <entry>
    <fullUrl value="http://hapi.fhir.org/baseR4/MedicationStatement/590172"/>
    <resource>
      <MedicationStatement>
        <id value="590172"/>
        <meta>
          <versionId value="1"/>
          <lastUpdated value="2020-01-14T06:19:00.930+00:00"/>
          <source value="#bmtEz8sb9pfLhTXY"/>
        </meta>
        <text>
          <status value="generated"/>
          <div>prednisone 20mg 2 tabs/day</div>
        </text>
        <status value="active"/>
        <medicationCodeableConcept>
          <coding>
            <system value="http://snomed.info/ct"/>
            <code value="325456002"/>
            <display value="prednisone 20mg"/>
          </coding>
          <text value="prednisone 20mg"/>
        </medicationCodeableConcept>
        <subject>
          <reference value="Patient/590106"/>
        </subject>
        <dosage>
          <text value="2 tabs once daily"/>
          <timing>
            <repeat>
              <frequency value="1"/>
              <period value="1"/>
              <periodUnit value="d"/>
            </repeat>
          </timing>
          <asNeededBoolean value="true"/>
        </dosage>
      </MedicationStatement>
    </resource>
    <search>
      <mode value="match"/>
    </search>
  </entry>
  <entry>
    <fullUrl value="http://hapi.fhir.org/baseR4/MedicationStatement/587996"/>
    <resource>
      <MedicationStatement>
        <id value="587996"/>
        <meta>
          <versionId value="1"/>
          <lastUpdated value="2020-01-10T13:37:52.958+00:00"/>
          <source value="#k23rMkKT48IamYaE"/>
        </meta>
        <medicationReference>
          <reference value="Medication/587995"/>
        </medicationReference>
        <subject>
          <reference value="Patient/1207"/>
        </subject>
      </MedicationStatement>
    </resource>
    <search>
      <mode value="match"/>
    </search>
  </entry>
  <entry>
    <fullUrl value="http://hapi.fhir.org/baseR4/MedicationStatement/587992"/>
    <resource>
      <MedicationStatement>
        <id value="587992"/>
        <meta>
          <versionId value="1"/>
          <lastUpdated value="2020-01-10T13:12:14.574+00:00"/>
          <source value="#D5fv7H36uOU8GrkK"/>
        </meta>
        <medicationReference>
          <reference value="Medication/587991"/>
        </medicationReference>
        <subject>
          <reference value="Patient/1207"/>
        </subject>
      </MedicationStatement>
    </resource>
    <search>
      <mode value="match"/>
    </search>
  </entry>
  <entry>
    <fullUrl value="http://hapi.fhir.org/baseR4/MedicationStatement/587988"/>
    <resource>
      <MedicationStatement>
        <id value="587988"/>
        <meta>
          <versionId value="1"/>
          <lastUpdated value="2020-01-10T13:02:34.389+00:00"/>
          <source value="#0kwIOTgh3p0nzTnt"/>
        </meta>
        <medicationReference>
          <reference value="Medication/587957"/>
        </medicationReference>
        <subject>
          <reference value="Patient/1207"/>
        </subject>
      </MedicationStatement>
    </resource>
    <search>
      <mode value="match"/>
    </search>
  </entry>
  <entry>
    <fullUrl value="http://hapi.fhir.org/baseR4/MedicationStatement/587986"/>
    <resource>
      <MedicationStatement>
        <id value="587986"/>
        <meta>
          <versionId value="1"/>
          <lastUpdated value="2020-01-10T13:00:05.491+00:00"/>
          <source value="#QHdloRlvLCtAHRnK"/>
        </meta>
        <medicationReference>
          <reference value="Medication/587985"/>
        </medicationReference>
        <subject>
          <reference value="Patient/1208"/>
        </subject>
      </MedicationStatement>
    </resource>
    <search>
      <mode value="match"/>
    </search>
  </entry>
  <entry>
    <fullUrl value="http://hapi.fhir.org/baseR4/MedicationStatement/247588"/>
    <resource>
      <MedicationStatement>
        <id value="247588"/>
        <meta>
          <versionId value="1"/>
          <lastUpdated value="2019-12-09T12:49:46.399+00:00"/>
          <source value="#BWk2GsxeevTqjh4L"/>
        </meta>
        <identifier>
          <use value="official"/>
          <system value="http://www.bmc.nl/portal/medstatements"/>
          <value value="12345689"/>
        </identifier>
        <basedOn>
          <reference value="CarePlan/247555"/>
        </basedOn>
        <partOf>
          <reference value="MedicationDispense/247554"/>
        </partOf>
        <status value="completed"/>
        <statusReason>
          <coding>
            <system value="http://snomed.info/sct"/>
            <code value="33319005"/>
            <display value="Fentanyl"/>
          </coding>
        </statusReason>
        <category>
          <coding>
            <system value="http://terminology.hl7.org/CodeSystem/medication-statement-category"/>
            <code value="inpatient"/>
            <display value="Inpatient"/>
          </coding>
        </category>
        <medicationReference>
          <reference value="Medication/247579"/>
        </medicationReference>
        <subject>
          <reference value="Group/247549"/>
          <display value="Donald Duck"/>
        </subject>
        <context>
          <reference value="EpisodeOfCare/247553"/>
          <display value="encounter who leads to this prescription"/>
        </context>
        <effectivePeriod>
          <start value="2015-01-15T14:30:00+01:00"/>
          <end value="2015-01-30T14:30:00+01:00"/>
        </effectivePeriod>
        <dateAsserted value="2015-02-22"/>
        <informationSource>
          <reference value="Practitioner/247570"/>
          <display value="Donald Duck"/>
        </informationSource>
        <derivedFrom>
          <reference value="MedicationRequest/247547"/>
        </derivedFrom>
        <reasonCode>
          <coding>
            <system value="http://snomed.info/sct"/>
            <code value="32914008"/>
            <display value="Restless Legs"/>
          </coding>
        </reasonCode>
        <reasonReference>
          <reference value="Observation/247550"/>
        </reasonReference>
        <note>
          <text value="Patient indicates they miss the occasional dose"/>
        </note>
        <dosage>
          <sequence value="1"/>
          <text value="1-2 tablets once daily at bedtime as needed for restless legs"/>
          <additionalInstruction>
            <text value="Taking at bedtime"/>
          </additionalInstruction>
          <timing>
            <repeat>
              <frequency value="1"/>
              <period value="1"/>
              <periodUnit value="d"/>
            </repeat>
          </timing>
          <asNeededCodeableConcept>
            <coding>
              <system value="http://snomed.info/sct"/>
              <code value="32914008"/>
              <display value="Restless Legs"/>
            </coding>
          </asNeededCodeableConcept>
          <route>
            <coding>
              <system value="http://snomed.info/sct"/>
              <code value="26643006"/>
              <display value="Oral Route"/>
            </coding>
          </route>
          <doseAndRate>
            <type>
              <coding>
                <system value="http://terminology.hl7.org/CodeSystem/dose-rate-type"/>
                <code value="ordered"/>
                <display value="Ordered"/>
              </coding>
            </type>
            <doseRange>
              <low>
                <value value="1"/>
                <unit value="TAB"/>
                <system value="http://terminology.hl7.org/CodeSystem/v3-orderableDrugForm"/>
                <code value="TAB"/>
              </low>
              <high>
                <value value="2"/>
                <unit value="TAB"/>
                <system value="http://terminology.hl7.org/CodeSystem/v3-orderableDrugForm"/>
                <code value="TAB"/>
              </high>
            </doseRange>
          </doseAndRate>
        </dosage>
      </MedicationStatement>
    </resource>
    <search>
      <mode value="match"/>
    </search>
  </entry>
  <entry>
    <fullUrl value="http://hapi.fhir.org/baseR4/MedicationStatement/247587"/>
    <resource>
      <MedicationStatement>
        <id value="247587"/>
        <meta>
          <versionId value="1"/>
          <lastUpdated value="2019-12-09T12:49:46.040+00:00"/>
          <source value="#oi2xmRgNNtszK76v"/>
        </meta>
        <identifier>
          <use value="official"/>
          <system value="http://www.bmc.nl/portal/medstatements"/>
          <value value="12345689"/>
        </identifier>
        <basedOn>
          <reference value="MedicationRequest/247547"/>
        </basedOn>
        <partOf>
          <reference value="MedicationAdministration/247557"/>
        </partOf>
        <status value="active"/>
        <statusReason>
          <coding>
            <system value="http://snomed.info/sct"/>
            <code value="33319005"/>
            <display value="Fentanyl"/>
          </coding>
        </statusReason>
        <category>
          <coding>
            <system value="http://terminology.hl7.org/CodeSystem/medication-statement-category"/>
            <code value="inpatient"/>
            <display value="Inpatient"/>
          </coding>
        </category>
        <medicationReference>
          <reference value="Medication/247579"/>
        </medicationReference>
        <subject>
          <reference value="Patient/247584"/>
          <display value="Donald Duck"/>
        </subject>
        <context>
          <reference value="Encounter/247556"/>
          <display value="encounter who leads to this prescription"/>
        </context>
        <effectivePeriod>
          <start value="2015-01-15T14:30:00+01:00"/>
          <end value="2015-01-30T14:30:00+01:00"/>
        </effectivePeriod>
        <dateAsserted value="2015-02-22"/>
        <informationSource>
          <reference value="Patient/247584"/>
          <display value="Donald Duck"/>
        </informationSource>
        <derivedFrom>
          <reference value="MedicationRequest/247547"/>
        </derivedFrom>
        <reasonCode>
          <coding>
            <system value="http://snomed.info/sct"/>
            <code value="32914008"/>
            <display value="Restless Legs"/>
          </coding>
        </reasonCode>
        <reasonReference>
          <reference value="Condition/247566"/>
        </reasonReference>
        <note>
          <text value="Patient indicates they miss the occasional dose"/>
        </note>
        <dosage>
          <sequence value="1"/>
          <text value="1-2 tablets once daily at bedtime as needed for restless legs"/>
          <additionalInstruction>
            <text value="Taking at bedtime"/>
          </additionalInstruction>
          <timing>
            <repeat>
              <frequency value="1"/>
              <period value="1"/>
              <periodUnit value="d"/>
            </repeat>
          </timing>
          <asNeededCodeableConcept>
            <coding>
              <system value="http://snomed.info/sct"/>
              <code value="32914008"/>
              <display value="Restless Legs"/>
            </coding>
          </asNeededCodeableConcept>
          <route>
            <coding>
              <system value="http://snomed.info/sct"/>
              <code value="26643006"/>
              <display value="Oral Route"/>
            </coding>
          </route>
          <doseAndRate>
            <type>
              <coding>
                <system value="http://terminology.hl7.org/CodeSystem/dose-rate-type"/>
                <code value="ordered"/>
                <display value="Ordered"/>
              </coding>
            </type>
            <doseRange>
              <low>
                <value value="1"/>
                <unit value="TAB"/>
                <system value="http://terminology.hl7.org/CodeSystem/v3-orderableDrugForm"/>
                <code value="TAB"/>
              </low>
              <high>
                <value value="2"/>
                <unit value="TAB"/>
                <system value="http://terminology.hl7.org/CodeSystem/v3-orderableDrugForm"/>
                <code value="TAB"/>
              </high>
            </doseRange>
          </doseAndRate>
        </dosage>
      </MedicationStatement>
    </resource>
    <search>
      <mode value="match"/>
    </search>
  </entry>
  <entry>
    <fullUrl value="http://hapi.fhir.org/baseR4/MedicationStatement/247558"/>
    <resource>
      <MedicationStatement>
        <id value="247558"/>
        <meta>
          <versionId value="1"/>
          <lastUpdated value="2019-12-09T12:49:34.201+00:00"/>
          <source value="#pWhFniAeMUxJRGHG"/>
        </meta>
        <identifier>
          <use value="official"/>
        </identifier>
        <identifier>
          <system value="http://www.bmc.nl/portal/medstatements"/>
          <value value="12345689"/>
        </identifier>
      </MedicationStatement>
    </resource>
    <search>
      <mode value="match"/>
    </search>
  </entry>
  <entry>
    <fullUrl value="http://hapi.fhir.org/baseR4/MedicationStatement/247541"/>
    <resource>
      <MedicationStatement>
        <id value="247541"/>
        <meta>
          <versionId value="1"/>
          <lastUpdated value="2019-12-09T12:41:52.757+00:00"/>
          <source value="#H6AvpmvE6K74W5ll"/>
          <profile value="http:/sdfds.sdf.com"/>
          <security>
            <system value="syssecurity"/>
            <code value="codesecurity"/>
          </security>
          <tag>
            <system value="systetest"/>
            <code value="codetest"/>
          </tag>
        </meta>
        <identifier>
          <use value="official"/>
          <system value="http://www.bmc.nl/portal/medstatements"/>
          <value value="12345689"/>
        </identifier>
        <basedOn>
          <reference value="MedicationRequest/246761"/>
        </basedOn>
        <partOf>
          <reference value="MedicationAdministration/246771"/>
        </partOf>
        <status value="active"/>
        <statusReason>
          <coding>
            <system value="http://snomed.info/sct"/>
            <code value="33319005"/>
            <display value="Fentanyl"/>
          </coding>
        </statusReason>
        <category>
          <coding>
            <system value="http://terminology.hl7.org/CodeSystem/medication-statement-category"/>
            <code value="inpatient"/>
            <display value="Inpatient"/>
          </coding>
        </category>
        <medicationReference>
          <reference value="Medication/246793"/>
        </medicationReference>
        <subject>
          <reference value="Patient/246798"/>
          <display value="Donald Duck"/>
        </subject>
        <context>
          <reference value="Encounter/246770"/>
          <display value="encounter who leads to this prescription"/>
        </context>
        <effectivePeriod>
          <start value="2015-01-15T14:30:00+01:00"/>
          <end value="2015-01-30T14:30:00+01:00"/>
        </effectivePeriod>
        <dateAsserted value="2015-02-22"/>
        <informationSource>
          <reference value="Patient/246798"/>
          <display value="Donald Duck"/>
        </informationSource>
        <derivedFrom>
          <reference value="MedicationRequest/246761"/>
        </derivedFrom>
        <reasonCode>
          <coding>
            <system value="http://snomed.info/sct"/>
            <code value="32914008"/>
            <display value="Restless Legs"/>
          </coding>
        </reasonCode>
        <reasonReference>
          <reference value="Condition/246780"/>
        </reasonReference>
        <note>
          <text value="Patient indicates they miss the occasional dose"/>
        </note>
        <dosage>
          <sequence value="1"/>
          <text value="1-2 tablets once daily at bedtime as needed for restless legs"/>
          <additionalInstruction>
            <text value="Taking at bedtime"/>
          </additionalInstruction>
          <timing>
            <repeat>
              <frequency value="1"/>
              <period value="1"/>
              <periodUnit value="d"/>
            </repeat>
          </timing>
          <asNeededCodeableConcept>
            <coding>
              <system value="http://snomed.info/sct"/>
              <code value="32914008"/>
              <display value="Restless Legs"/>
            </coding>
          </asNeededCodeableConcept>
          <route>
            <coding>
              <system value="http://snomed.info/sct"/>
              <code value="26643006"/>
              <display value="Oral Route"/>
            </coding>
          </route>
          <doseAndRate>
            <type>
              <coding>
                <system value="http://terminology.hl7.org/CodeSystem/dose-rate-type"/>
                <code value="ordered"/>
                <display value="Ordered"/>
              </coding>
            </type>
            <doseRange>
              <low>
                <value value="1"/>
                <unit value="TAB"/>
                <system value="http://terminology.hl7.org/CodeSystem/v3-orderableDrugForm"/>
                <code value="TAB"/>
              </low>
              <high>
                <value value="2"/>
                <unit value="TAB"/>
                <system value="http://terminology.hl7.org/CodeSystem/v3-orderableDrugForm"/>
                <code value="TAB"/>
              </high>
            </doseRange>
          </doseAndRate>
        </dosage>
      </MedicationStatement>
    </resource>
    <search>
      <mode value="match"/>
    </search>
  </entry>
  <entry>
    <fullUrl value="http://hapi.fhir.org/baseR4/MedicationStatement/247540"/>
    <resource>
      <MedicationStatement>
        <id value="247540"/>
        <meta>
          <versionId value="1"/>
          <lastUpdated value="2019-12-09T12:32:04.085+00:00"/>
          <source value="#Wgpv36LJplQPDU66"/>
          <profile value="http:/sdfds.sdf.com"/>
          <security>
            <system value="syssecurity"/>
            <code value="codesecurity"/>
          </security>
          <tag>
            <system value="systetest"/>
            <code value="codetest"/>
          </tag>
        </meta>
        <identifier>
          <use value="official"/>
          <system value="http://www.bmc.nl/portal/medstatements"/>
          <value value="12345689"/>
        </identifier>
        <basedOn>
          <reference value="MedicationRequest/246761"/>
        </basedOn>
        <partOf>
          <reference value="MedicationAdministration/246771"/>
        </partOf>
        <status value="active"/>
        <statusReason>
          <coding>
            <system value="http://snomed.info/sct"/>
            <code value="33319005"/>
            <display value="Fentanyl"/>
          </coding>
        </statusReason>
        <category>
          <coding>
            <system value="http://terminology.hl7.org/CodeSystem/medication-statement-category"/>
            <code value="inpatient"/>
            <display value="Inpatient"/>
          </coding>
        </category>
        <medicationReference>
          <reference value="Medication/246793"/>
        </medicationReference>
        <subject>
          <reference value="Patient/246798"/>
          <display value="Donald Duck"/>
        </subject>
        <context>
          <reference value="Encounter/246770"/>
          <display value="encounter who leads to this prescription"/>
        </context>
        <effectivePeriod>
          <start value="2015-01-15T14:30:00+01:00"/>
          <end value="2015-01-30T14:30:00+01:00"/>
        </effectivePeriod>
        <dateAsserted value="2015-02-22"/>
        <informationSource>
          <reference value="Patient/246798"/>
          <display value="Donald Duck"/>
        </informationSource>
        <derivedFrom>
          <reference value="MedicationRequest/246761"/>
        </derivedFrom>
        <reasonCode>
          <coding>
            <system value="http://snomed.info/sct"/>
            <code value="32914008"/>
            <display value="Restless Legs"/>
          </coding>
        </reasonCode>
        <reasonReference>
          <reference value="Condition/246780"/>
        </reasonReference>
        <note>
          <text value="Patient indicates they miss the occasional dose"/>
        </note>
        <dosage>
          <sequence value="1"/>
          <text value="1-2 tablets once daily at bedtime as needed for restless legs"/>
          <additionalInstruction>
            <text value="Taking at bedtime"/>
          </additionalInstruction>
          <timing>
            <repeat>
              <frequency value="1"/>
              <period value="1"/>
              <periodUnit value="d"/>
            </repeat>
          </timing>
          <asNeededCodeableConcept>
            <coding>
              <system value="http://snomed.info/sct"/>
              <code value="32914008"/>
              <display value="Restless Legs"/>
            </coding>
          </asNeededCodeableConcept>
          <route>
            <coding>
              <system value="http://snomed.info/sct"/>
              <code value="26643006"/>
              <display value="Oral Route"/>
            </coding>
          </route>
          <doseAndRate>
            <type>
              <coding>
                <system value="http://terminology.hl7.org/CodeSystem/dose-rate-type"/>
                <code value="ordered"/>
                <display value="Ordered"/>
              </coding>
            </type>
            <doseRange>
              <low>
                <value value="1"/>
                <unit value="TAB"/>
                <system value="http://terminology.hl7.org/CodeSystem/v3-orderableDrugForm"/>
                <code value="TAB"/>
              </low>
              <high>
                <value value="2"/>
                <unit value="TAB"/>
                <system value="http://terminology.hl7.org/CodeSystem/v3-orderableDrugForm"/>
                <code value="TAB"/>
              </high>
            </doseRange>
          </doseAndRate>
        </dosage>
      </MedicationStatement>
    </resource>
    <search>
      <mode value="match"/>
    </search>
  </entry>
  <entry>
    <fullUrl value="http://hapi.fhir.org/baseR4/MedicationStatement/247530"/>
    <resource>
      <MedicationStatement>
        <id value="247530"/>
        <meta>
          <versionId value="1"/>
          <lastUpdated value="2019-12-09T12:01:24.305+00:00"/>
          <source value="#upWpwKQBxEpS0Tpg"/>
        </meta>
        <status value="active"/>
        <medicationCodeableConcept>
          <coding>
            <system value="http://snomed.info/ct"/>
            <code value="321323009"/>
            <display value="buspirone 5mg"/>
          </coding>
        </medicationCodeableConcept>
        <subject>
          <reference value="Patient/247458"/>
        </subject>
        <dosage>
          <text value="3 times daily"/>
          <timing>
            <repeat>
              <frequency value="3"/>
              <period value="1"/>
              <periodUnit value="d"/>
            </repeat>
          </timing>
        </dosage>
      </MedicationStatement>
    </resource>
    <search>
      <mode value="match"/>
    </search>
  </entry>
  <entry>
    <fullUrl value="http://hapi.fhir.org/baseR4/MedicationStatement/247520"/>
    <resource>
      <MedicationStatement>
        <id value="247520"/>
        <meta>
          <versionId value="1"/>
          <lastUpdated value="2019-12-09T12:01:24.305+00:00"/>
          <source value="#upWpwKQBxEpS0Tpg"/>
        </meta>
        <text>
          <status value="generated"/>
          <div>losartan 100mg + hydrochlorothiazide 12.5mg once daily</div>
        </text>
        <status value="active"/>
        <medicationCodeableConcept>
          <coding>
            <system value="http://snomed.info/ct"/>
            <code value="444639002"/>
            <display value="losartan 100mg + hydrochlorothiazide 12.5mg"/>
          </coding>
          <text value="losartan 100mg + hydrochlorothiazide 12.5mg"/>
        </medicationCodeableConcept>
        <subject>
          <reference value="Patient/247458"/>
        </subject>
        <dosage>
          <text value="once daily"/>
          <timing>
            <repeat>
              <frequency value="1"/>
              <period value="1"/>
              <periodUnit value="d"/>
            </repeat>
          </timing>
        </dosage>
      </MedicationStatement>
    </resource>
    <search>
      <mode value="match"/>
    </search>
  </entry>
  <entry>
    <fullUrl value="http://hapi.fhir.org/baseR4/MedicationStatement/247521"/>
    <resource>
      <MedicationStatement>
        <id value="247521"/>
        <meta>
          <versionId value="1"/>
          <lastUpdated value="2019-12-09T12:01:24.305+00:00"/>
          <source value="#upWpwKQBxEpS0Tpg"/>
        </meta>
        <text>
          <status value="generated"/>
          <div>metformin 1000mg twice daily</div>
        </text>
        <status value="active"/>
        <medicationCodeableConcept>
          <coding>
            <system value="http://snomed.info/ct"/>
            <code value="411533003"/>
            <display value="metformin 1000mg"/>
          </coding>
          <text value="metformin 1000mg"/>
        </medicationCodeableConcept>
        <subject>
          <reference value="Patient/247458"/>
        </subject>
        <dosage>
          <text value="1 tab twice daily"/>
          <timing>
            <repeat>
              <frequency value="2"/>
              <period value="1"/>
              <periodUnit value="d"/>
            </repeat>
          </timing>
        </dosage>
      </MedicationStatement>
    </resource>
    <search>
      <mode value="match"/>
    </search>
  </entry>
  <entry>
    <fullUrl value="http://hapi.fhir.org/baseR4/MedicationStatement/247522"/>
    <resource>
      <MedicationStatement>
        <id value="247522"/>
        <meta>
          <versionId value="1"/>
          <lastUpdated value="2019-12-09T12:01:24.305+00:00"/>
          <source value="#upWpwKQBxEpS0Tpg"/>
        </meta>
        <text>
          <status value="generated"/>
          <div>naproxen 500mg twice daily</div>
        </text>
        <status value="active"/>
        <medicationCodeableConcept>
          <coding>
            <system value="http://snomed.info/ct"/>
            <code value="329839005"/>
            <display value="naproxen 500mg e/c tablet"/>
          </coding>
          <text value="naproxen 500mg e/c tablet"/>
        </medicationCodeableConcept>
        <subject>
          <reference value="Patient/247458"/>
        </subject>
        <dosage>
          <text value="1 tab twice daily"/>
          <timing>
            <repeat>
              <frequency value="2"/>
              <period value="1"/>
              <periodUnit value="d"/>
            </repeat>
          </timing>
        </dosage>
      </MedicationStatement>
    </resource>
    <search>
      <mode value="match"/>
    </search>
  </entry>
  <entry>
    <fullUrl value="http://hapi.fhir.org/baseR4/Encounter/246770"/>
    <resource>
      <Encounter>
        <id value="246770"/>
        <meta>
          <versionId value="1"/>
          <lastUpdated value="2019-12-09T10:06:39.743+00:00"/>
          <source value="#sfdvjjwgapfoub8S"/>
        </meta>
        <identifier>
          <use value="official"/>
        </identifier>
        <identifier>
          <system value="http://www.bmc.nl/portal/medstatements"/>
          <value value="12345689"/>
        </identifier>
      </Encounter>
    </resource>
    <search>
      <mode value="include"/>
    </search>
  </entry>
  <entry>
    <fullUrl value="http://hapi.fhir.org/baseR4/Patient/247458"/>
    <resource>
      <Patient>
        <id value="247458"/>
        <meta>
          <versionId value="1"/>
          <lastUpdated value="2019-12-09T12:01:19.714+00:00"/>
          <source value="#jiG23ngmixkOoSqu"/>
        </meta>
        <text>
          <status value="generated"/>
          <div>Lilly Williams</div>
        </text>
        <name>
          <use value="official"/>
          <text value="Lilly Williams"/>
          <family value="Williams"/>
          <given value="Lilly"/>
        </name>
        <gender value="female"/>
        <birthDate value="2019-12-09"/>
      </Patient>
    </resource>
    <search>
      <mode value="include"/>
    </search>
  </entry>
  <entry>
    <fullUrl value="http://hapi.fhir.org/baseR4/EpisodeOfCare/247553"/>
    <resource>
      <EpisodeOfCare>
        <id value="247553"/>
        <meta>
          <versionId value="1"/>
          <lastUpdated value="2019-12-09T12:49:32.204+00:00"/>
          <source value="#5zJfNzlFkLHUnuln"/>
        </meta>
        <identifier>
          <use value="official"/>
        </identifier>
        <identifier>
          <system value="http://www.bmc.nl/portal/medstatements"/>
          <value value="12345689"/>
        </identifier>
      </EpisodeOfCare>
    </resource>
    <search>
      <mode value="include"/>
    </search>
  </entry>
  <entry>
    <fullUrl value="http://hapi.fhir.org/baseR4/Patient/247584"/>
    <resource>
      <Patient>
        <id value="247584"/>
        <meta>
          <versionId value="1"/>
          <lastUpdated value="2019-12-09T12:49:44.641+00:00"/>
          <source value="#OnpMv54qLfQzaSDi"/>
        </meta>
        <text>
          <status value="generated"/>
          <div>
            <div class="hapiHeaderText">Mrs Katerina 
                     <b>NGUYEN </b>
                  </div>
            <table class="hapiPropertyTable">
              <tbody>
                <tr>
                  <td>Identifier</td>
                  <td>49476534</td>
                </tr>
                <tr>
                  <td>Address</td>
                  <td>
                    <span>Unit 7 </span>
                    <br/>
                    <span>76 Clydesdale St </span>
                    <br/>
                    <span>Como </span>
                    <span>WA </span>
                    <span>Australia </span>
                  </td>
                </tr>
                <tr>
                  <td>Date of birth</td>
                  <td>
                    <span>18 August 1979</span>
                  </td>
                </tr>
              </tbody>
            </table>
          </div>
        </text>
        <identifier>
          <value value="49476534"/>
        </identifier>
        <active value="true"/>
        <name>
          <use value="usual"/>
          <family value="Nguyen"/>
          <given value="Katerina"/>
          <prefix value="Mrs"/>
        </name>
        <telecom>
          <system value="phone"/>
          <value value="0403 823 832"/>
          <use value="mobile"/>
          <rank value="1"/>
        </telecom>
        <telecom>
          <system value="phone"/>
          <value value="08 9398 1165"/>
          <use value="home"/>
          <rank value="2"/>
        </telecom>
        <telecom>
          <system value="phone"/>
          <value value="08 9876 5432"/>
          <use value="work"/>
          <rank value="3"/>
        </telecom>
        <telecom>
          <system value="email"/>
          <value value="kate.nguyen79@gmail.com"/>
          <use value="work"/>
          <rank value="4"/>
        </telecom>
        <gender value="female"/>
        <birthDate value="1979-08-18"/>
        <deceasedBoolean value="true"/>
        <address>
          <use value="home"/>
          <line value="Unit 7"/>
          <line value="76 Clydesdale St"/>
          <city value="Como"/>
          <state value="WA"/>
          <postalCode value="6152"/>
          <country value="Australia"/>
        </address>
        <contact>
          <relationship>
            <coding>
              <system value="http://hl7.org/fhir/ValueSet/patient-contact-relationship"/>
              <code value="partner"/>
              <display value="Partner"/>
            </coding>
          </relationship>
          <name>
            <use value="usual"/>
            <family value="Nguyen"/>
            <given value="Jimmy"/>
            <prefix value="Mr"/>
          </name>
          <telecom>
            <system value="phone"/>
            <value value="0403 123 456"/>
            <use value="mobile"/>
            <rank value="1"/>
          </telecom>
          <telecom>
            <system value="phone"/>
            <value value="08 4564 3214"/>
            <use value="home"/>
            <rank value="2"/>
          </telecom>
          <telecom>
            <system value="phone"/>
            <value value="08 9994 5547"/>
            <use value="work"/>
            <rank value="3"/>
          </telecom>
          <telecom>
            <system value="email"/>
            <value value="jim.nguyen79@work.com"/>
            <use value="work"/>
            <rank value="4"/>
          </telecom>
          <address>
            <use value="home"/>
            <line value="Unit 7"/>
            <line value="76 Clydesdale St"/>
            <city value="Como"/>
            <state value="WA"/>
            <postalCode value="6152"/>
            <country value="Australia"/>
          </address>
          <gender value="male"/>
        </contact>
      </Patient>
    </resource>
    <search>
      <mode value="include"/>
    </search>
  </entry>
  <entry>
    <fullUrl value="http://hapi.fhir.org/baseR4/Patient/590106"/>
    <resource>
      <Patient>
        <id value="590106"/>
        <meta>
          <versionId value="1"/>
          <lastUpdated value="2020-01-14T06:18:54.564+00:00"/>
          <source value="#Kmek0dMpeDAjwyGO"/>
        </meta>
        <text>
          <status value="generated"/>
          <div>Asher Johnson</div>
        </text>
        <name>
          <use value="official"/>
          <text value="Asher Johnson"/>
          <family value="Johnson"/>
          <given value="Asher"/>
        </name>
        <gender value="male"/>
        <birthDate value="2020-01-14"/>
      </Patient>
    </resource>
    <search>
      <mode value="include"/>
    </search>
  </entry>
  <entry>
    <fullUrl value="http://hapi.fhir.org/baseR4/Encounter/247556"/>
    <resource>
      <Encounter>
        <id value="247556"/>
        <meta>
          <versionId value="1"/>
          <lastUpdated value="2019-12-09T12:49:33.443+00:00"/>
          <source value="#y6GR10F11OT3K3Kw"/>
        </meta>
        <identifier>
          <use value="official"/>
        </identifier>
        <identifier>
          <system value="http://www.bmc.nl/portal/medstatements"/>
          <value value="12345689"/>
        </identifier>
      </Encounter>
    </resource>
    <search>
      <mode value="include"/>
    </search>
  </entry>
  <entry>
    <fullUrl value="http://hapi.fhir.org/baseR4/Patient/1207"/>
    <resource>
      <Patient>
        <id value="1207"/>
        <meta>
          <versionId value="6"/>
          <lastUpdated value="2019-11-26T10:09:32.524+00:00"/>
          <source value="#qpq4Eon8B5mZTGQJ"/>
        </meta>
        <text>
          <status value="generated"/>
          <div>
            <div class="hapiHeaderText">Pratik 
                     <b>B </b> 
                  </div>
            <table class="hapiPropertyTable">
              <tbody>
                <tr>
                  <td>Identifier</td>
                  <td>5911bfd0-687e-4ac9-ab37-04e8815e4f0d</td>
                </tr>
              </tbody>
            </table>
          </div>
        </text>
        <identifier>
          <type>
            <coding>
              <system value="http://hl7.org/fhir/v2/0203"/>
              <code value="MR"/>
            </coding>
          </type>
          <value value="5911bfd0-687e-4ac9-ab37-04e8815e4f0d"/>
        </identifier>
        <name>
          <family value="B"/>
          <given value="Pratik"/>
        </name>
        <telecom>
          <system value="email"/>
          <value value="pratikB@appexinnovation.com"/>
          <use value="work"/>
        </telecom>
        <telecom>
          <system value="phone"/>
          <value value="0652352638"/>
          <use value="home"/>
        </telecom>
        <telecom>
          <system value="phone"/>
          <value value="0652152639"/>
          <use value="work"/>
        </telecom>
        <gender value="male"/>
        <birthDate value="1992-11-10"/>
        <address>
          <city value="Mumbai"/>
        </address>
        <generalPractitioner>
          <reference value="Practitioner/1058"/>
          <display value="Guru-General Practitioner"/>
        </generalPractitioner>
        <managingOrganization>
          <reference value="Organization/1621"/>
          <display value="CAPE COD HOSPITAL"/>
        </managingOrganization>
      </Patient>
    </resource>
    <search>
      <mode value="include"/>
    </search>
  </entry>
  <entry>
    <fullUrl value="http://hapi.fhir.org/baseR4/Patient/1208"/>
    <resource>
      <Patient>
        <id value="1208"/>
        <meta>
          <versionId value="13"/>
          <lastUpdated value="2020-01-15T13:46:11.299+00:00"/>
          <source value="#oLXZNGtuhH6uB4pm"/>
        </meta>
        <text>
          <status value="generated"/>
          <div>
            <div class="hapiHeaderText">Murali 
                     <b>A </b>
                  </div>
            <table class="hapiPropertyTable">
              <tbody>
                <tr>
                  <td>Address</td>
                  <td>
                    <span>undefined </span>
                    <br/>
                    <span>Mumbai </span>
                  </td>
                </tr>
                <tr>
                  <td>Date of birth</td>
                  <td>
                    <span>10 November 1992</span>
                  </td>
                </tr>
              </tbody>
            </table>
          </div>
        </text>
        <name>
          <family value="A"/>
          <given value="Murali "/>
        </name>
        <gender value="male"/>
        <birthDate value="1992-11-10"/>
        <address>
          <line value="undefined"/>
          <city value="Mumbai"/>
          <postalCode value="undefined"/>
        </address>
      </Patient>
    </resource>
    <search>
      <mode value="include"/>
    </search>
  </entry>
  <entry>
    <fullUrl value="http://hapi.fhir.org/baseR4/Patient/246798"/>
    <resource>
      <Patient>
        <id value="246798"/>
        <meta>
          <versionId value="1"/>
          <lastUpdated value="2019-12-09T10:06:50.569+00:00"/>
          <source value="#ymfZxcf4oqW9NZfM"/>
        </meta>
        <text>
          <status value="generated"/>
          <div>
            <div class="hapiHeaderText">Mrs Katerina 
                     <b>NGUYEN </b>
                  </div>
            <table class="hapiPropertyTable">
              <tbody>
                <tr>
                  <td>Identifier</td>
                  <td>49476534</td>
                </tr>
                <tr>
                  <td>Address</td>
                  <td>
                    <span>Unit 7 </span>
                    <br/>
                    <span>76 Clydesdale St </span>
                    <br/>
                    <span>Como </span>
                    <span>WA </span>
                    <span>Australia </span>
                  </td>
                </tr>
                <tr>
                  <td>Date of birth</td>
                  <td>
                    <span>18 August 1979</span>
                  </td>
                </tr>
              </tbody>
            </table>
          </div>
        </text>
        <identifier>
          <value value="49476534"/>
        </identifier>
        <active value="true"/>
        <name>
          <use value="usual"/>
          <family value="Nguyen"/>
          <given value="Katerina"/>
          <prefix value="Mrs"/>
        </name>
        <telecom>
          <system value="phone"/>
          <value value="0403 823 832"/>
          <use value="mobile"/>
          <rank value="1"/>
        </telecom>
        <telecom>
          <system value="phone"/>
          <value value="08 9398 1165"/>
          <use value="home"/>
          <rank value="2"/>
        </telecom>
        <telecom>
          <system value="phone"/>
          <value value="08 9876 5432"/>
          <use value="work"/>
          <rank value="3"/>
        </telecom>
        <telecom>
          <system value="email"/>
          <value value="kate.nguyen79@gmail.com"/>
          <use value="work"/>
          <rank value="4"/>
        </telecom>
        <gender value="female"/>
        <birthDate value="1979-08-18"/>
        <deceasedBoolean value="true"/>
        <address>
          <use value="home"/>
          <line value="Unit 7"/>
          <line value="76 Clydesdale St"/>
          <city value="Como"/>
          <state value="WA"/>
          <postalCode value="6152"/>
          <country value="Australia"/>
        </address>
        <contact>
          <relationship>
            <coding>
              <system value="http://hl7.org/fhir/ValueSet/patient-contact-relationship"/>
              <code value="partner"/>
              <display value="Partner"/>
            </coding>
          </relationship>
          <name>
            <use value="usual"/>
            <family value="Nguyen"/>
            <given value="Jimmy"/>
            <prefix value="Mr"/>
          </name>
          <telecom>
            <system value="phone"/>
            <value value="0403 123 456"/>
            <use value="mobile"/>
            <rank value="1"/>
          </telecom>
          <telecom>
            <system value="phone"/>
            <value value="08 4564 3214"/>
            <use value="home"/>
            <rank value="2"/>
          </telecom>
          <telecom>
            <system value="phone"/>
            <value value="08 9994 5547"/>
            <use value="work"/>
            <rank value="3"/>
          </telecom>
          <telecom>
            <system value="email"/>
            <value value="jim.nguyen79@work.com"/>
            <use value="work"/>
            <rank value="4"/>
          </telecom>
          <address>
            <use value="home"/>
            <line value="Unit 7"/>
            <line value="76 Clydesdale St"/>
            <city value="Como"/>
            <state value="WA"/>
            <postalCode value="6152"/>
            <country value="Australia"/>
          </address>
          <gender value="male"/>
        </contact>
      </Patient>
    </resource>
    <search>
      <mode value="include"/>
    </search>
  </entry>
  <entry>
    <fullUrl value="http://hapi.fhir.org/baseR4/Group/247549"/>
    <resource>
      <Group>
        <id value="247549"/>
        <meta>
          <versionId value="1"/>
          <lastUpdated value="2019-12-09T12:49:30.739+00:00"/>
          <source value="#ikKRVEwV1QI08KqQ"/>
        </meta>
        <identifier>
          <use value="official"/>
        </identifier>
        <identifier>
          <system value="http://www.bmc.nl/portal/medstatements"/>
          <value value="12345689"/>
        </identifier>
      </Group>
    </resource>
    <search>
      <mode value="include"/>
    </search>
  </entry>
</Bundle>
