<?xml version="1.0" encoding="UTF-8"?>
<Bundle>
  <id value="15792624-5f41-4e1b-89cd-99bb6d64f628"/>
  <meta>
    <lastUpdated value="2020-05-31T19:18:49.635+00:00"/>
  </meta>
  <type value="searchset"/>
  <total value="5700"/>
  <link>
    <relation value="self"/>
    <url value="http://hapi.fhir.org/baseR4?_getpages=15792624-5f41-4e1b-89cd-99bb6d64f628&amp;_getpagesoffset=4300&amp;_count=20&amp;_format=xml&amp;_pretty=true&amp;_bundletype=searchset"/>
  </link>
  <link>
    <relation value="next"/>
    <url value="http://hapi.fhir.org/baseR4?_getpages=15792624-5f41-4e1b-89cd-99bb6d64f628&amp;_getpagesoffset=4320&amp;_count=20&amp;_format=xml&amp;_pretty=true&amp;_bundletype=searchset"/>
  </link>
  <link>
    <relation value="previous"/>
    <url value="http://hapi.fhir.org/baseR4?_getpages=15792624-5f41-4e1b-89cd-99bb6d64f628&amp;_getpagesoffset=4280&amp;_count=20&amp;_format=xml&amp;_pretty=true&amp;_bundletype=searchset"/>
  </link>
  <entry>
    <fullUrl value="http://hapi.fhir.org/baseR4/MedicationStatement/250156"/>
    <resource>
      <MedicationStatement>
        <id value="250156"/>
        <meta>
          <versionId value="1"/>
          <lastUpdated value="2019-12-10T15:24:15.889+00:00"/>
          <source value="#zKJBqujIqVT6kd0H"/>
        </meta>
        <text>
          <status value="generated"/>
          <div>isosorbide mononitrate 20mg once daily</div>
        </text>
        <status value="active"/>
        <medicationCodeableConcept>
          <coding>
            <system value="http://snomed.info/ct"/>
            <code value="319134001"/>
            <display value="isosorbide mononitrate 20mg"/>
          </coding>
          <text value="isosorbide mononitrate 20mg"/>
        </medicationCodeableConcept>
        <subject>
          <reference value="Patient/250085"/>
        </subject>
        <dosage>
          <text value="once daily at bedtime"/>
          <timing>
            <repeat>
              <frequency value="1"/>
              <period value="1"/>
              <periodUnit value="d"/>
            </repeat>
          </timing>
        </dosage>
      </MedicationStatement>
    </resource>
    <search>
      <mode value="match"/>
    </search>
  </entry>
  <entry>
    <fullUrl value="http://hapi.fhir.org/baseR4/MedicationStatement/243725"/>
    <resource>
      <MedicationStatement>
        <id value="243725"/>
        <meta>
          <versionId value="1"/>
          <lastUpdated value="2019-12-09T06:32:37.621+00:00"/>
          <source value="#QX9cBji1ZKDuehkN"/>
        </meta>
        <identifier>
          <use value="official"/>
          <system value="http://www.bmc.nl/portal/medstatements"/>
          <value value="12345689"/>
        </identifier>
        <basedOn>
          <reference value="CarePlan/243698"/>
        </basedOn>
        <partOf>
          <reference value="Procedure/243694"/>
        </partOf>
        <status value="intended"/>
        <statusReason>
          <coding>
            <system value="http://snomed.info/sct"/>
            <code value="33319005"/>
            <display value="Fentanyl"/>
          </coding>
        </statusReason>
        <category>
          <coding>
            <system value="http://terminology.hl7.org/CodeSystem/medication-statement-category"/>
            <code value="inpatient"/>
            <display value="Inpatient"/>
          </coding>
        </category>
        <medicationReference>
          <reference value="Medication/243714"/>
        </medicationReference>
        <subject>
          <reference value="Patient/243719"/>
          <display value="Donald Duck"/>
        </subject>
        <context>
          <reference value="Encounter/243699"/>
          <display value="encounter who leads to this prescription"/>
        </context>
        <effectivePeriod>
          <start value="2015-01-15T14:30:00+01:00"/>
          <end value="2015-01-30T14:30:00+01:00"/>
        </effectivePeriod>
        <dateAsserted value="2015-02-22"/>
        <informationSource>
          <reference value="Patient/243719"/>
          <display value="Donald Duck"/>
        </informationSource>
        <derivedFrom>
          <reference value="MedicationRequest/243690"/>
        </derivedFrom>
        <reasonCode>
          <coding>
            <system value="http://snomed.info/sct"/>
            <code value="32914008"/>
            <display value="Restless Legs"/>
          </coding>
        </reasonCode>
        <reasonReference>
          <reference value="Condition/${conditionId_1}"/>
        </reasonReference>
        <note>
          <text value="Patient indicates they miss the occasional dose"/>
        </note>
        <dosage>
          <sequence value="1"/>
          <text value="1-2 tablets once daily at bedtime as needed for restless legs"/>
          <additionalInstruction>
            <text value="Taking at bedtime"/>
          </additionalInstruction>
          <timing>
            <repeat>
              <frequency value="1"/>
              <period value="1"/>
              <periodUnit value="d"/>
            </repeat>
          </timing>
          <asNeededCodeableConcept>
            <coding>
              <system value="http://snomed.info/sct"/>
              <code value="32914008"/>
              <display value="Restless Legs"/>
            </coding>
          </asNeededCodeableConcept>
          <route>
            <coding>
              <system value="http://snomed.info/sct"/>
              <code value="26643006"/>
              <display value="Oral Route"/>
            </coding>
          </route>
          <doseAndRate>
            <type>
              <coding>
                <system value="http://terminology.hl7.org/CodeSystem/dose-rate-type"/>
                <code value="ordered"/>
                <display value="Ordered"/>
              </coding>
            </type>
            <doseRange>
              <low>
                <value value="1"/>
                <unit value="TAB"/>
                <system value="http://terminology.hl7.org/CodeSystem/v3-orderableDrugForm"/>
                <code value="TAB"/>
              </low>
              <high>
                <value value="2"/>
                <unit value="TAB"/>
                <system value="http://terminology.hl7.org/CodeSystem/v3-orderableDrugForm"/>
                <code value="TAB"/>
              </high>
            </doseRange>
          </doseAndRate>
        </dosage>
      </MedicationStatement>
    </resource>
    <search>
      <mode value="match"/>
    </search>
  </entry>
  <entry>
    <fullUrl value="http://hapi.fhir.org/baseR4/MedicationStatement/243724"/>
    <resource>
      <MedicationStatement>
        <id value="243724"/>
        <meta>
          <versionId value="1"/>
          <lastUpdated value="2019-12-09T06:32:37.260+00:00"/>
          <source value="#iwe5sDals10ai66v"/>
        </meta>
        <identifier>
          <use value="official"/>
          <system value="http://www.bmc.nl/portal/medstatements"/>
          <value value="12345689"/>
        </identifier>
        <basedOn>
          <reference value="ServiceRequest/${serviceRequestId_1}"/>
        </basedOn>
        <partOf>
          <reference value="MedicationStatement/243701"/>
        </partOf>
        <status value="entered-in-error"/>
        <statusReason>
          <coding>
            <system value="http://snomed.info/sct"/>
            <code value="33319005"/>
            <display value="Fentanyl"/>
          </coding>
        </statusReason>
        <category>
          <coding>
            <system value="http://terminology.hl7.org/CodeSystem/medication-statement-category"/>
            <code value="inpatient"/>
            <display value="Inpatient"/>
          </coding>
        </category>
        <medicationReference>
          <reference value="Medication/243714"/>
        </medicationReference>
        <subject>
          <reference value="Patient/243719"/>
          <display value="Donald Duck"/>
        </subject>
        <context>
          <reference value="Encounter/243699"/>
          <display value="encounter who leads to this prescription"/>
        </context>
        <effectivePeriod>
          <start value="2015-01-15T14:30:00+01:00"/>
          <end value="2015-01-30T14:30:00+01:00"/>
        </effectivePeriod>
        <dateAsserted value="2015-02-22"/>
        <informationSource>
          <reference value="PractitionerRole/243695"/>
          <display value="Donald Duck"/>
        </informationSource>
        <derivedFrom>
          <reference value="MedicationRequest/243690"/>
        </derivedFrom>
        <reasonCode>
          <coding>
            <system value="http://snomed.info/sct"/>
            <code value="32914008"/>
            <display value="Restless Legs"/>
          </coding>
        </reasonCode>
        <reasonReference>
          <reference value="DiagnosticReport/${diagnosticReportId_1}"/>
        </reasonReference>
        <note>
          <text value="Patient indicates they miss the occasional dose"/>
        </note>
        <dosage>
          <sequence value="1"/>
          <text value="1-2 tablets once daily at bedtime as needed for restless legs"/>
          <additionalInstruction>
            <text value="Taking at bedtime"/>
          </additionalInstruction>
          <timing>
            <repeat>
              <frequency value="1"/>
              <period value="1"/>
              <periodUnit value="d"/>
            </repeat>
          </timing>
          <asNeededCodeableConcept>
            <coding>
              <system value="http://snomed.info/sct"/>
              <code value="32914008"/>
              <display value="Restless Legs"/>
            </coding>
          </asNeededCodeableConcept>
          <route>
            <coding>
              <system value="http://snomed.info/sct"/>
              <code value="26643006"/>
              <display value="Oral Route"/>
            </coding>
          </route>
          <doseAndRate>
            <type>
              <coding>
                <system value="http://terminology.hl7.org/CodeSystem/dose-rate-type"/>
                <code value="ordered"/>
                <display value="Ordered"/>
              </coding>
            </type>
            <doseRange>
              <low>
                <value value="1"/>
                <unit value="TAB"/>
                <system value="http://terminology.hl7.org/CodeSystem/v3-orderableDrugForm"/>
                <code value="TAB"/>
              </low>
              <high>
                <value value="2"/>
                <unit value="TAB"/>
                <system value="http://terminology.hl7.org/CodeSystem/v3-orderableDrugForm"/>
                <code value="TAB"/>
              </high>
            </doseRange>
          </doseAndRate>
        </dosage>
      </MedicationStatement>
    </resource>
    <search>
      <mode value="match"/>
    </search>
  </entry>
  <entry>
    <fullUrl value="http://hapi.fhir.org/baseR4/MedicationStatement/243723"/>
    <resource>
      <MedicationStatement>
        <id value="243723"/>
        <meta>
          <versionId value="1"/>
          <lastUpdated value="2019-12-09T06:32:36.892+00:00"/>
          <source value="#WzarMujtKagzo5ko"/>
        </meta>
        <identifier>
          <use value="official"/>
          <system value="http://www.bmc.nl/portal/medstatements"/>
          <value value="12345689"/>
        </identifier>
        <basedOn>
          <reference value="CarePlan/243698"/>
        </basedOn>
        <partOf>
          <reference value="MedicationDispense/243697"/>
        </partOf>
        <status value="completed"/>
        <statusReason>
          <coding>
            <system value="http://snomed.info/sct"/>
            <code value="33319005"/>
            <display value="Fentanyl"/>
          </coding>
        </statusReason>
        <category>
          <coding>
            <system value="http://terminology.hl7.org/CodeSystem/medication-statement-category"/>
            <code value="inpatient"/>
            <display value="Inpatient"/>
          </coding>
        </category>
        <medicationReference>
          <reference value="Medication/243714"/>
        </medicationReference>
        <subject>
          <reference value="Group/243692"/>
          <display value="Donald Duck"/>
        </subject>
        <context>
          <reference value="EpisodeOfCare/243696"/>
          <display value="encounter who leads to this prescription"/>
        </context>
        <effectivePeriod>
          <start value="2015-01-15T14:30:00+01:00"/>
          <end value="2015-01-30T14:30:00+01:00"/>
        </effectivePeriod>
        <dateAsserted value="2015-02-22"/>
        <informationSource>
          <reference value="Practitioner/243705"/>
          <display value="Donald Duck"/>
        </informationSource>
        <derivedFrom>
          <reference value="MedicationRequest/243690"/>
        </derivedFrom>
        <reasonCode>
          <coding>
            <system value="http://snomed.info/sct"/>
            <code value="32914008"/>
            <display value="Restless Legs"/>
          </coding>
        </reasonCode>
        <reasonReference>
          <reference value="Observation/243693"/>
        </reasonReference>
        <note>
          <text value="Patient indicates they miss the occasional dose"/>
        </note>
        <dosage>
          <sequence value="1"/>
          <text value="1-2 tablets once daily at bedtime as needed for restless legs"/>
          <additionalInstruction>
            <text value="Taking at bedtime"/>
          </additionalInstruction>
          <timing>
            <repeat>
              <frequency value="1"/>
              <period value="1"/>
              <periodUnit value="d"/>
            </repeat>
          </timing>
          <asNeededCodeableConcept>
            <coding>
              <system value="http://snomed.info/sct"/>
              <code value="32914008"/>
              <display value="Restless Legs"/>
            </coding>
          </asNeededCodeableConcept>
          <route>
            <coding>
              <system value="http://snomed.info/sct"/>
              <code value="26643006"/>
              <display value="Oral Route"/>
            </coding>
          </route>
          <doseAndRate>
            <type>
              <coding>
                <system value="http://terminology.hl7.org/CodeSystem/dose-rate-type"/>
                <code value="ordered"/>
                <display value="Ordered"/>
              </coding>
            </type>
            <doseRange>
              <low>
                <value value="1"/>
                <unit value="TAB"/>
                <system value="http://terminology.hl7.org/CodeSystem/v3-orderableDrugForm"/>
                <code value="TAB"/>
              </low>
              <high>
                <value value="2"/>
                <unit value="TAB"/>
                <system value="http://terminology.hl7.org/CodeSystem/v3-orderableDrugForm"/>
                <code value="TAB"/>
              </high>
            </doseRange>
          </doseAndRate>
        </dosage>
      </MedicationStatement>
    </resource>
    <search>
      <mode value="match"/>
    </search>
  </entry>
  <entry>
    <fullUrl value="http://hapi.fhir.org/baseR4/MedicationStatement/243722"/>
    <resource>
      <MedicationStatement>
        <id value="243722"/>
        <meta>
          <versionId value="1"/>
          <lastUpdated value="2019-12-09T06:32:36.502+00:00"/>
          <source value="#L00XIjdEoNjnBBtx"/>
        </meta>
        <identifier>
          <use value="official"/>
          <system value="http://www.bmc.nl/portal/medstatements"/>
          <value value="12345689"/>
        </identifier>
        <basedOn>
          <reference value="MedicationRequest/243690"/>
        </basedOn>
        <partOf>
          <reference value="MedicationAdministration/243700"/>
        </partOf>
        <status value="active"/>
        <statusReason>
          <coding>
            <system value="http://snomed.info/sct"/>
            <code value="33319005"/>
            <display value="Fentanyl"/>
          </coding>
        </statusReason>
        <category>
          <coding>
            <system value="http://terminology.hl7.org/CodeSystem/medication-statement-category"/>
            <code value="inpatient"/>
            <display value="Inpatient"/>
          </coding>
        </category>
        <medicationReference>
          <reference value="Medication/243714"/>
        </medicationReference>
        <subject>
          <reference value="Patient/243719"/>
          <display value="Donald Duck"/>
        </subject>
        <context>
          <reference value="Encounter/243699"/>
          <display value="encounter who leads to this prescription"/>
        </context>
        <effectivePeriod>
          <start value="2015-01-15T14:30:00+01:00"/>
          <end value="2015-01-30T14:30:00+01:00"/>
        </effectivePeriod>
        <dateAsserted value="2015-02-22"/>
        <informationSource>
          <reference value="Patient/243719"/>
          <display value="Donald Duck"/>
        </informationSource>
        <derivedFrom>
          <reference value="MedicationRequest/243690"/>
        </derivedFrom>
        <reasonCode>
          <coding>
            <system value="http://snomed.info/sct"/>
            <code value="32914008"/>
            <display value="Restless Legs"/>
          </coding>
        </reasonCode>
        <reasonReference>
          <reference value="Condition/${conditionId_1}"/>
        </reasonReference>
        <note>
          <text value="Patient indicates they miss the occasional dose"/>
        </note>
        <dosage>
          <sequence value="1"/>
          <text value="1-2 tablets once daily at bedtime as needed for restless legs"/>
          <additionalInstruction>
            <text value="Taking at bedtime"/>
          </additionalInstruction>
          <timing>
            <repeat>
              <frequency value="1"/>
              <period value="1"/>
              <periodUnit value="d"/>
            </repeat>
          </timing>
          <asNeededCodeableConcept>
            <coding>
              <system value="http://snomed.info/sct"/>
              <code value="32914008"/>
              <display value="Restless Legs"/>
            </coding>
          </asNeededCodeableConcept>
          <route>
            <coding>
              <system value="http://snomed.info/sct"/>
              <code value="26643006"/>
              <display value="Oral Route"/>
            </coding>
          </route>
          <doseAndRate>
            <type>
              <coding>
                <system value="http://terminology.hl7.org/CodeSystem/dose-rate-type"/>
                <code value="ordered"/>
                <display value="Ordered"/>
              </coding>
            </type>
            <doseRange>
              <low>
                <value value="1"/>
                <unit value="TAB"/>
                <system value="http://terminology.hl7.org/CodeSystem/v3-orderableDrugForm"/>
                <code value="TAB"/>
              </low>
              <high>
                <value value="2"/>
                <unit value="TAB"/>
                <system value="http://terminology.hl7.org/CodeSystem/v3-orderableDrugForm"/>
                <code value="TAB"/>
              </high>
            </doseRange>
          </doseAndRate>
        </dosage>
      </MedicationStatement>
    </resource>
    <search>
      <mode value="match"/>
    </search>
  </entry>
  <entry>
    <fullUrl value="http://hapi.fhir.org/baseR4/MedicationStatement/243701"/>
    <resource>
      <MedicationStatement>
        <id value="243701"/>
        <meta>
          <versionId value="1"/>
          <lastUpdated value="2019-12-09T06:32:27.516+00:00"/>
          <source value="#IfO0qGVW99gHdeTq"/>
        </meta>
        <identifier>
          <use value="official"/>
        </identifier>
        <identifier>
          <system value="http://www.bmc.nl/portal/medstatements"/>
          <value value="12345689"/>
        </identifier>
      </MedicationStatement>
    </resource>
    <search>
      <mode value="match"/>
    </search>
  </entry>
  <entry>
    <fullUrl value="http://hapi.fhir.org/baseR4/MedicationStatement/243560"/>
    <resource>
      <MedicationStatement>
        <id value="243560"/>
        <meta>
          <versionId value="1"/>
          <lastUpdated value="2019-12-09T06:19:44.605+00:00"/>
          <source value="#8Wgr6js9durgxSZC"/>
        </meta>
        <text>
          <status value="generated"/>
          <div>metformin 1000mg twice daily</div>
        </text>
        <status value="active"/>
        <medicationCodeableConcept>
          <coding>
            <system value="http://snomed.info/ct"/>
            <code value="411533003"/>
            <display value="metformin 1000mg"/>
          </coding>
          <text value="metformin 1000mg"/>
        </medicationCodeableConcept>
        <subject>
          <reference value="Patient/243497"/>
        </subject>
        <dosage>
          <text value="1 tab twice daily"/>
          <timing>
            <repeat>
              <frequency value="2"/>
              <period value="1"/>
              <periodUnit value="d"/>
            </repeat>
          </timing>
        </dosage>
      </MedicationStatement>
    </resource>
    <search>
      <mode value="match"/>
    </search>
  </entry>
  <entry>
    <fullUrl value="http://hapi.fhir.org/baseR4/MedicationStatement/243561"/>
    <resource>
      <MedicationStatement>
        <id value="243561"/>
        <meta>
          <versionId value="1"/>
          <lastUpdated value="2019-12-09T06:19:44.605+00:00"/>
          <source value="#8Wgr6js9durgxSZC"/>
        </meta>
        <text>
          <status value="generated"/>
          <div>naproxen 500mg twice daily</div>
        </text>
        <status value="active"/>
        <medicationCodeableConcept>
          <coding>
            <system value="http://snomed.info/ct"/>
            <code value="329839005"/>
            <display value="naproxen 500mg e/c tablet"/>
          </coding>
          <text value="naproxen 500mg e/c tablet"/>
        </medicationCodeableConcept>
        <subject>
          <reference value="Patient/243497"/>
        </subject>
        <dosage>
          <text value="1 tab twice daily"/>
          <timing>
            <repeat>
              <frequency value="2"/>
              <period value="1"/>
              <periodUnit value="d"/>
            </repeat>
          </timing>
        </dosage>
      </MedicationStatement>
    </resource>
    <search>
      <mode value="match"/>
    </search>
  </entry>
  <entry>
    <fullUrl value="http://hapi.fhir.org/baseR4/MedicationStatement/243564"/>
    <resource>
      <MedicationStatement>
        <id value="243564"/>
        <meta>
          <versionId value="1"/>
          <lastUpdated value="2019-12-09T06:19:44.605+00:00"/>
          <source value="#8Wgr6js9durgxSZC"/>
        </meta>
        <text>
          <status value="generated"/>
          <div>simvastatin 40mg once daily</div>
        </text>
        <status value="active"/>
        <medicationCodeableConcept>
          <coding>
            <system value="http://snomed.info/ct"/>
            <code value="429374003"/>
            <display value="simvastatin 40mg"/>
          </coding>
          <text value="simvastatin 40mg"/>
        </medicationCodeableConcept>
        <subject>
          <reference value="Patient/243497"/>
        </subject>
        <dosage>
          <text value="1 tab once daily"/>
          <timing>
            <repeat>
              <frequency value="1"/>
              <period value="1"/>
              <periodUnit value="d"/>
            </repeat>
          </timing>
          <asNeededBoolean value="true"/>
        </dosage>
      </MedicationStatement>
    </resource>
    <search>
      <mode value="match"/>
    </search>
  </entry>
  <entry>
    <fullUrl value="http://hapi.fhir.org/baseR4/MedicationStatement/243553"/>
    <resource>
      <MedicationStatement>
        <id value="243553"/>
        <meta>
          <versionId value="1"/>
          <lastUpdated value="2019-12-09T06:19:44.605+00:00"/>
          <source value="#8Wgr6js9durgxSZC"/>
        </meta>
        <text>
          <status value="generated"/>
          <div>beclomethasone 2 puffs twice daily</div>
        </text>
        <status value="active"/>
        <medicationCodeableConcept>
          <coding>
            <system value="http://snomed.info/ct"/>
            <code value="376733004"/>
            <display value="beclomethasone dipropionate 40mcg aerosol"/>
          </coding>
          <text value="beclomethasone dipropionate 40mcg aerosol"/>
        </medicationCodeableConcept>
        <subject>
          <reference value="Patient/243497"/>
        </subject>
        <dosage>
          <text value="2 puffs twice daily"/>
          <timing>
            <repeat>
              <frequency value="2"/>
              <period value="1"/>
              <periodUnit value="d"/>
            </repeat>
          </timing>
          <asNeededBoolean value="false"/>
        </dosage>
      </MedicationStatement>
    </resource>
    <search>
      <mode value="match"/>
    </search>
  </entry>
  <entry>
    <fullUrl value="http://hapi.fhir.org/baseR4/MedicationStatement/243565"/>
    <resource>
      <MedicationStatement>
        <id value="243565"/>
        <meta>
          <versionId value="1"/>
          <lastUpdated value="2019-12-09T06:19:44.605+00:00"/>
          <source value="#8Wgr6js9durgxSZC"/>
        </meta>
        <text>
          <status value="generated"/>
          <div>terbinafine 250mg once daily</div>
        </text>
        <status value="active"/>
        <medicationCodeableConcept>
          <coding>
            <system value="http://snomed.info/ct"/>
            <code value="324718007"/>
            <display value="terbinafine 250mg"/>
          </coding>
          <text value="terbinafine 250mg"/>
        </medicationCodeableConcept>
        <subject>
          <reference value="Patient/243497"/>
        </subject>
        <dosage>
          <text value="1 tab once daily"/>
          <timing>
            <repeat>
              <frequency value="1"/>
              <period value="1"/>
              <periodUnit value="d"/>
            </repeat>
          </timing>
          <asNeededBoolean value="true"/>
        </dosage>
      </MedicationStatement>
    </resource>
    <search>
      <mode value="match"/>
    </search>
  </entry>
  <entry>
    <fullUrl value="http://hapi.fhir.org/baseR4/MedicationStatement/243554"/>
    <resource>
      <MedicationStatement>
        <id value="243554"/>
        <meta>
          <versionId value="1"/>
          <lastUpdated value="2019-12-09T06:19:44.605+00:00"/>
          <source value="#8Wgr6js9durgxSZC"/>
        </meta>
        <text>
          <status value="generated"/>
          <div>carvedilol 25 mg twice daily</div>
        </text>
        <status value="active"/>
        <medicationCodeableConcept>
          <coding>
            <system value="http://snomed.info/ct"/>
            <code value="318632005"/>
            <display value="carvedilol 25 mg"/>
          </coding>
          <text value="carvedilol 25 mg"/>
        </medicationCodeableConcept>
        <subject>
          <reference value="Patient/243497"/>
        </subject>
        <dosage>
          <text value="twice daily"/>
          <timing>
            <repeat>
              <frequency value="2"/>
              <period value="1"/>
              <periodUnit value="d"/>
            </repeat>
          </timing>
        </dosage>
      </MedicationStatement>
    </resource>
    <search>
      <mode value="match"/>
    </search>
  </entry>
  <entry>
    <fullUrl value="http://hapi.fhir.org/baseR4/MedicationStatement/243562"/>
    <resource>
      <MedicationStatement>
        <id value="243562"/>
        <meta>
          <versionId value="1"/>
          <lastUpdated value="2019-12-09T06:19:44.605+00:00"/>
          <source value="#8Wgr6js9durgxSZC"/>
        </meta>
        <text>
          <status value="generated"/>
          <div>omeprazole 40mg daily</div>
        </text>
        <status value="active"/>
        <medicationCodeableConcept>
          <coding>
            <system value="http://snomed.info/ct"/>
            <code value="407848004"/>
            <display value="omeprazole 40mg e/c tablet"/>
          </coding>
          <text value="omeprazole 40mg e/c tablet "/>
        </medicationCodeableConcept>
        <subject>
          <reference value="Patient/243497"/>
        </subject>
        <dosage>
          <text value="1 tab once daily"/>
          <timing>
            <repeat>
              <frequency value="1"/>
              <period value="1"/>
              <periodUnit value="d"/>
            </repeat>
          </timing>
        </dosage>
      </MedicationStatement>
    </resource>
    <search>
      <mode value="match"/>
    </search>
  </entry>
  <entry>
    <fullUrl value="http://hapi.fhir.org/baseR4/MedicationStatement/243551"/>
    <resource>
      <MedicationStatement>
        <id value="243551"/>
        <meta>
          <versionId value="1"/>
          <lastUpdated value="2019-12-09T06:19:44.605+00:00"/>
          <source value="#8Wgr6js9durgxSZC"/>
        </meta>
        <text>
          <status value="generated"/>
          <div>salbutamol inhaler 2 puffs every 4 hours as required</div>
        </text>
        <status value="active"/>
        <medicationCodeableConcept>
          <coding>
            <system value="http://snomed.info/ct"/>
            <code value=" 320176004"/>
            <display value=" salbutamol 100micrograms/inhaler "/>
          </coding>
          <text value="salbutamol 100micrograms/inhaler"/>
        </medicationCodeableConcept>
        <subject>
          <reference value="Patient/243497"/>
        </subject>
        <dosage>
          <text value="2 puffs every 4 hours as needed"/>
          <timing>
            <repeat>
              <frequency value="1"/>
              <period value="4"/>
              <periodUnit value="h"/>
            </repeat>
          </timing>
          <asNeededBoolean value="true"/>
        </dosage>
      </MedicationStatement>
    </resource>
    <search>
      <mode value="match"/>
    </search>
  </entry>
  <entry>
    <fullUrl value="http://hapi.fhir.org/baseR4/MedicationStatement/243563"/>
    <resource>
      <MedicationStatement>
        <id value="243563"/>
        <meta>
          <versionId value="1"/>
          <lastUpdated value="2019-12-09T06:19:44.605+00:00"/>
          <source value="#8Wgr6js9durgxSZC"/>
        </meta>
        <text>
          <status value="generated"/>
          <div>prednisone 20mg 2 tabs/day</div>
        </text>
        <status value="active"/>
        <medicationCodeableConcept>
          <coding>
            <system value="http://snomed.info/ct"/>
            <code value="325456002"/>
            <display value="prednisone 20mg"/>
          </coding>
          <text value="prednisone 20mg"/>
        </medicationCodeableConcept>
        <subject>
          <reference value="Patient/243497"/>
        </subject>
        <dosage>
          <text value="2 tabs once daily"/>
          <timing>
            <repeat>
              <frequency value="1"/>
              <period value="1"/>
              <periodUnit value="d"/>
            </repeat>
          </timing>
          <asNeededBoolean value="true"/>
        </dosage>
      </MedicationStatement>
    </resource>
    <search>
      <mode value="match"/>
    </search>
  </entry>
  <entry>
    <fullUrl value="http://hapi.fhir.org/baseR4/MedicationStatement/243552"/>
    <resource>
      <MedicationStatement>
        <id value="243552"/>
        <meta>
          <versionId value="1"/>
          <lastUpdated value="2019-12-09T06:19:44.605+00:00"/>
          <source value="#8Wgr6js9durgxSZC"/>
        </meta>
        <text>
          <status value="generated"/>
          <div>aspirin 81mg once daily</div>
        </text>
        <contained>
          <Medication>
            <id value="med1"/>
            <code>
              <coding>
                <system value="http://snomed.info/ct"/>
                <code value="370167008 "/>
                <display value="aspirin 81mg e/c tablet "/>
              </coding>
              <text value="aspirin 81mg e/c tablet"/>
            </code>
          </Medication>
        </contained>
        <status value="active"/>
        <medicationReference>
          <reference value="#med1"/>
          <display value="aspirin 81mg e/c tablet"/>
        </medicationReference>
        <subject>
          <reference value="Patient/243497"/>
        </subject>
        <dosage>
          <text value="once daily"/>
          <timing>
            <repeat>
              <frequency value="1"/>
              <period value="1"/>
              <periodUnit value="d"/>
            </repeat>
          </timing>
        </dosage>
      </MedicationStatement>
    </resource>
    <search>
      <mode value="match"/>
    </search>
  </entry>
  <entry>
    <fullUrl value="http://hapi.fhir.org/baseR4/MedicationStatement/243568"/>
    <resource>
      <MedicationStatement>
        <id value="243568"/>
        <meta>
          <versionId value="1"/>
          <lastUpdated value="2019-12-09T06:19:44.605+00:00"/>
          <source value="#8Wgr6js9durgxSZC"/>
        </meta>
        <text>
          <status value="generated"/>
          <div>isosorbide mononitrate 20mg once daily</div>
        </text>
        <status value="active"/>
        <medicationCodeableConcept>
          <coding>
            <system value="http://snomed.info/ct"/>
            <code value="319134001"/>
            <display value="isosorbide mononitrate 20mg"/>
          </coding>
          <text value="isosorbide mononitrate 20mg"/>
        </medicationCodeableConcept>
        <subject>
          <reference value="Patient/243497"/>
        </subject>
        <dosage>
          <text value="once daily at bedtime"/>
          <timing>
            <repeat>
              <frequency value="1"/>
              <period value="1"/>
              <periodUnit value="d"/>
            </repeat>
          </timing>
        </dosage>
      </MedicationStatement>
    </resource>
    <search>
      <mode value="match"/>
    </search>
  </entry>
  <entry>
    <fullUrl value="http://hapi.fhir.org/baseR4/MedicationStatement/243557"/>
    <resource>
      <MedicationStatement>
        <id value="243557"/>
        <meta>
          <versionId value="1"/>
          <lastUpdated value="2019-12-09T06:19:44.605+00:00"/>
          <source value="#8Wgr6js9durgxSZC"/>
        </meta>
        <text>
          <status value="generated"/>
          <div>gabapentin 600mg twice daily</div>
        </text>
        <status value="active"/>
        <medicationCodeableConcept>
          <coding>
            <system value="http://snomed.info/ct"/>
            <code value="323021008"/>
            <display value="gabapentin 600mg"/>
          </coding>
          <text value="gabapentin 600mg"/>
        </medicationCodeableConcept>
        <subject>
          <reference value="Patient/243497"/>
        </subject>
        <dosage>
          <text value="twice daily"/>
          <timing>
            <repeat>
              <frequency value="2"/>
              <period value="1"/>
              <periodUnit value="d"/>
            </repeat>
          </timing>
        </dosage>
      </MedicationStatement>
    </resource>
    <search>
      <mode value="match"/>
    </search>
  </entry>
  <entry>
    <fullUrl value="http://hapi.fhir.org/baseR4/MedicationStatement/243569"/>
    <resource>
      <MedicationStatement>
        <id value="243569"/>
        <meta>
          <versionId value="1"/>
          <lastUpdated value="2019-12-09T06:19:44.605+00:00"/>
          <source value="#8Wgr6js9durgxSZC"/>
        </meta>
        <status value="active"/>
        <medicationCodeableConcept>
          <coding>
            <system value="http://snomed.info/ct"/>
            <code value="321323009"/>
            <display value="buspirone 5mg"/>
          </coding>
        </medicationCodeableConcept>
        <subject>
          <reference value="Patient/243497"/>
        </subject>
        <dosage>
          <text value="3 times daily"/>
          <timing>
            <repeat>
              <frequency value="3"/>
              <period value="1"/>
              <periodUnit value="d"/>
            </repeat>
          </timing>
        </dosage>
      </MedicationStatement>
    </resource>
    <search>
      <mode value="match"/>
    </search>
  </entry>
  <entry>
    <fullUrl value="http://hapi.fhir.org/baseR4/MedicationStatement/243558"/>
    <resource>
      <MedicationStatement>
        <id value="243558"/>
        <meta>
          <versionId value="1"/>
          <lastUpdated value="2019-12-09T06:19:44.605+00:00"/>
          <source value="#8Wgr6js9durgxSZC"/>
        </meta>
        <text>
          <status value="generated"/>
          <div>insulin glargine 100units/mL 28 units nocte</div>
        </text>
        <status value="active"/>
        <medicationCodeableConcept>
          <coding>
            <system value="http://snomed.info/ct"/>
            <code value="400847007"/>
            <display value="insulin glargine 100units/mL injection"/>
          </coding>
          <text value="insulin glargine 100units/mL injection"/>
        </medicationCodeableConcept>
        <subject>
          <reference value="Patient/243497"/>
        </subject>
        <dosage>
          <text value="28 units before bed"/>
          <timing>
            <repeat>
              <frequency value="1"/>
              <period value="1"/>
              <periodUnit value="d"/>
            </repeat>
          </timing>
        </dosage>
      </MedicationStatement>
    </resource>
    <search>
      <mode value="match"/>
    </search>
  </entry>
  <entry>
    <fullUrl value="http://hapi.fhir.org/baseR4/Encounter/243699"/>
    <resource>
      <Encounter>
        <id value="243699"/>
        <meta>
          <versionId value="1"/>
          <lastUpdated value="2019-12-09T06:32:26.769+00:00"/>
          <source value="#zY6nEaEVcNzmpw2L"/>
        </meta>
        <identifier>
          <use value="official"/>
        </identifier>
        <identifier>
          <system value="http://www.bmc.nl/portal/medstatements"/>
          <value value="12345689"/>
        </identifier>
      </Encounter>
    </resource>
    <search>
      <mode value="include"/>
    </search>
  </entry>
  <entry>
    <fullUrl value="http://hapi.fhir.org/baseR4/EpisodeOfCare/243696"/>
    <resource>
      <EpisodeOfCare>
        <id value="243696"/>
        <meta>
          <versionId value="1"/>
          <lastUpdated value="2019-12-09T06:32:25.654+00:00"/>
          <source value="#kjAyAtWRE6osvcFS"/>
        </meta>
        <identifier>
          <use value="official"/>
        </identifier>
        <identifier>
          <system value="http://www.bmc.nl/portal/medstatements"/>
          <value value="12345689"/>
        </identifier>
      </EpisodeOfCare>
    </resource>
    <search>
      <mode value="include"/>
    </search>
  </entry>
  <entry>
    <fullUrl value="http://hapi.fhir.org/baseR4/Patient/243719"/>
    <resource>
      <Patient>
        <id value="243719"/>
        <meta>
          <versionId value="1"/>
          <lastUpdated value="2019-12-09T06:32:35.005+00:00"/>
          <source value="#vKZNW8voGX3da31U"/>
        </meta>
        <text>
          <status value="generated"/>
          <div>
            <div class="hapiHeaderText">Mrs Katerina 
                     <b>NGUYEN </b>
                  </div>
            <table class="hapiPropertyTable">
              <tbody>
                <tr>
                  <td>Identifier</td>
                  <td>49476534</td>
                </tr>
                <tr>
                  <td>Address</td>
                  <td>
                    <span>Unit 7 </span>
                    <br/>
                    <span>76 Clydesdale St </span>
                    <br/>
                    <span>Como </span>
                    <span>WA </span>
                    <span>Australia </span>
                  </td>
                </tr>
                <tr>
                  <td>Date of birth</td>
                  <td>
                    <span>18 August 1979</span>
                  </td>
                </tr>
              </tbody>
            </table>
          </div>
        </text>
        <identifier>
          <value value="49476534"/>
        </identifier>
        <active value="true"/>
        <name>
          <use value="usual"/>
          <family value="Nguyen"/>
          <given value="Katerina"/>
          <prefix value="Mrs"/>
        </name>
        <telecom>
          <system value="phone"/>
          <value value="0403 823 832"/>
          <use value="mobile"/>
          <rank value="1"/>
        </telecom>
        <telecom>
          <system value="phone"/>
          <value value="08 9398 1165"/>
          <use value="home"/>
          <rank value="2"/>
        </telecom>
        <telecom>
          <system value="phone"/>
          <value value="08 9876 5432"/>
          <use value="work"/>
          <rank value="3"/>
        </telecom>
        <telecom>
          <system value="email"/>
          <value value="kate.nguyen79@gmail.com"/>
          <use value="work"/>
          <rank value="4"/>
        </telecom>
        <gender value="female"/>
        <birthDate value="1979-08-18"/>
        <deceasedBoolean value="true"/>
        <address>
          <use value="home"/>
          <line value="Unit 7"/>
          <line value="76 Clydesdale St"/>
          <city value="Como"/>
          <state value="WA"/>
          <postalCode value="6152"/>
          <country value="Australia"/>
        </address>
        <contact>
          <relationship>
            <coding>
              <system value="http://hl7.org/fhir/ValueSet/patient-contact-relationship"/>
              <code value="partner"/>
              <display value="Partner"/>
            </coding>
          </relationship>
          <name>
            <use value="usual"/>
            <family value="Nguyen"/>
            <given value="Jimmy"/>
            <prefix value="Mr"/>
          </name>
          <telecom>
            <system value="phone"/>
            <value value="0403 123 456"/>
            <use value="mobile"/>
            <rank value="1"/>
          </telecom>
          <telecom>
            <system value="phone"/>
            <value value="08 4564 3214"/>
            <use value="home"/>
            <rank value="2"/>
          </telecom>
          <telecom>
            <system value="phone"/>
            <value value="08 9994 5547"/>
            <use value="work"/>
            <rank value="3"/>
          </telecom>
          <telecom>
            <system value="email"/>
            <value value="jim.nguyen79@work.com"/>
            <use value="work"/>
            <rank value="4"/>
          </telecom>
          <address>
            <use value="home"/>
            <line value="Unit 7"/>
            <line value="76 Clydesdale St"/>
            <city value="Como"/>
            <state value="WA"/>
            <postalCode value="6152"/>
            <country value="Australia"/>
          </address>
          <gender value="male"/>
        </contact>
      </Patient>
    </resource>
    <search>
      <mode value="include"/>
    </search>
  </entry>
  <entry>
    <fullUrl value="http://hapi.fhir.org/baseR4/Patient/250085"/>
    <resource>
      <Patient>
        <id value="250085"/>
        <meta>
          <versionId value="1"/>
          <lastUpdated value="2019-12-10T15:24:10.425+00:00"/>
          <source value="#1ZYi2qp377JwEpqk"/>
        </meta>
        <text>
          <status value="generated"/>
          <div>Florence Taylor</div>
        </text>
        <name>
          <use value="official"/>
          <text value="Florence Taylor"/>
          <family value="Taylor"/>
          <given value="Florence"/>
        </name>
        <gender value="female"/>
        <birthDate value="2019-12-10"/>
      </Patient>
    </resource>
    <search>
      <mode value="include"/>
    </search>
  </entry>
  <entry>
    <fullUrl value="http://hapi.fhir.org/baseR4/Patient/243497"/>
    <resource>
      <Patient>
        <id value="243497"/>
        <meta>
          <versionId value="1"/>
          <lastUpdated value="2019-12-09T06:19:36.110+00:00"/>
          <source value="#KZiqxusCQhQm5zht"/>
        </meta>
        <text>
          <status value="generated"/>
          <div>Freya Walker</div>
        </text>
        <name>
          <use value="official"/>
          <text value="Freya Walker"/>
          <family value="Walker"/>
          <given value="Freya"/>
        </name>
        <gender value="female"/>
        <birthDate value="2019-12-09"/>
      </Patient>
    </resource>
    <search>
      <mode value="include"/>
    </search>
  </entry>
  <entry>
    <fullUrl value="http://hapi.fhir.org/baseR4/Group/243692"/>
    <resource>
      <Group>
        <id value="243692"/>
        <meta>
          <versionId value="1"/>
          <lastUpdated value="2019-12-09T06:32:24.164+00:00"/>
          <source value="#ZBgHDxYo8OVovX26"/>
        </meta>
        <identifier>
          <use value="official"/>
        </identifier>
        <identifier>
          <system value="http://www.bmc.nl/portal/medstatements"/>
          <value value="12345689"/>
        </identifier>
      </Group>
    </resource>
    <search>
      <mode value="include"/>
    </search>
  </entry>
</Bundle>
