<?xml version="1.0" encoding="UTF-8"?>
<Bundle>
  <id value="15792624-5f41-4e1b-89cd-99bb6d64f628"/>
  <meta>
    <lastUpdated value="2020-05-31T19:18:49.635+00:00"/>
  </meta>
  <type value="searchset"/>
  <total value="5700"/>
  <link>
    <relation value="self"/>
    <url value="http://hapi.fhir.org/baseR4?_getpages=15792624-5f41-4e1b-89cd-99bb6d64f628&amp;_getpagesoffset=5400&amp;_count=20&amp;_format=xml&amp;_pretty=true&amp;_bundletype=searchset"/>
  </link>
  <link>
    <relation value="next"/>
    <url value="http://hapi.fhir.org/baseR4?_getpages=15792624-5f41-4e1b-89cd-99bb6d64f628&amp;_getpagesoffset=5420&amp;_count=20&amp;_format=xml&amp;_pretty=true&amp;_bundletype=searchset"/>
  </link>
  <link>
    <relation value="previous"/>
    <url value="http://hapi.fhir.org/baseR4?_getpages=15792624-5f41-4e1b-89cd-99bb6d64f628&amp;_getpagesoffset=5380&amp;_count=20&amp;_format=xml&amp;_pretty=true&amp;_bundletype=searchset"/>
  </link>
  <entry>
    <fullUrl value="http://hapi.fhir.org/baseR4/MedicationStatement/59589"/>
    <resource>
      <MedicationStatement>
        <id value="59589"/>
        <meta>
          <versionId value="1"/>
          <lastUpdated value="2019-11-12T14:27:00.098+00:00"/>
          <source value="#xbWt8DMUQbi9IYRR"/>
        </meta>
        <text>
          <status value="generated"/>
          <div>citalopram 20 mg once daily</div>
        </text>
        <status value="active"/>
        <medicationCodeableConcept>
          <coding>
            <system value="http://snomed.info/ct"/>
            <code value="321987003"/>
            <display value="citalopram 20 mg"/>
          </coding>
          <text value="citalopram 20 mg"/>
        </medicationCodeableConcept>
        <subject>
          <reference value="Patient/59530"/>
        </subject>
        <dosage>
          <text value="once daily"/>
          <timing>
            <repeat>
              <frequency value="1"/>
              <period value="1"/>
              <periodUnit value="d"/>
            </repeat>
          </timing>
        </dosage>
      </MedicationStatement>
    </resource>
    <search>
      <mode value="match"/>
    </search>
  </entry>
  <entry>
    <fullUrl value="http://hapi.fhir.org/baseR4/MedicationStatement/59601"/>
    <resource>
      <MedicationStatement>
        <id value="59601"/>
        <meta>
          <versionId value="1"/>
          <lastUpdated value="2019-11-12T14:27:00.098+00:00"/>
          <source value="#xbWt8DMUQbi9IYRR"/>
        </meta>
        <text>
          <status value="generated"/>
          <div>isosorbide mononitrate 20mg once daily</div>
        </text>
        <status value="active"/>
        <medicationCodeableConcept>
          <coding>
            <system value="http://snomed.info/ct"/>
            <code value="319134001"/>
            <display value="isosorbide mononitrate 20mg"/>
          </coding>
          <text value="isosorbide mononitrate 20mg"/>
        </medicationCodeableConcept>
        <subject>
          <reference value="Patient/59530"/>
        </subject>
        <dosage>
          <text value="once daily at bedtime"/>
          <timing>
            <repeat>
              <frequency value="1"/>
              <period value="1"/>
              <periodUnit value="d"/>
            </repeat>
          </timing>
        </dosage>
      </MedicationStatement>
    </resource>
    <search>
      <mode value="match"/>
    </search>
  </entry>
  <entry>
    <fullUrl value="http://hapi.fhir.org/baseR4/MedicationStatement/59590"/>
    <resource>
      <MedicationStatement>
        <id value="59590"/>
        <meta>
          <versionId value="1"/>
          <lastUpdated value="2019-11-12T14:27:00.098+00:00"/>
          <source value="#xbWt8DMUQbi9IYRR"/>
        </meta>
        <text>
          <status value="generated"/>
          <div>gabapentin 600mg twice daily</div>
        </text>
        <status value="active"/>
        <medicationCodeableConcept>
          <coding>
            <system value="http://snomed.info/ct"/>
            <code value="323021008"/>
            <display value="gabapentin 600mg"/>
          </coding>
          <text value="gabapentin 600mg"/>
        </medicationCodeableConcept>
        <subject>
          <reference value="Patient/59530"/>
        </subject>
        <dosage>
          <text value="twice daily"/>
          <timing>
            <repeat>
              <frequency value="2"/>
              <period value="1"/>
              <periodUnit value="d"/>
            </repeat>
          </timing>
        </dosage>
      </MedicationStatement>
    </resource>
    <search>
      <mode value="match"/>
    </search>
  </entry>
  <entry>
    <fullUrl value="http://hapi.fhir.org/baseR4/MedicationStatement/59591"/>
    <resource>
      <MedicationStatement>
        <id value="59591"/>
        <meta>
          <versionId value="1"/>
          <lastUpdated value="2019-11-12T14:27:00.098+00:00"/>
          <source value="#xbWt8DMUQbi9IYRR"/>
        </meta>
        <text>
          <status value="generated"/>
          <div>insulin glargine 100units/mL 28 units nocte</div>
        </text>
        <status value="active"/>
        <medicationCodeableConcept>
          <coding>
            <system value="http://snomed.info/ct"/>
            <code value="400847007"/>
            <display value="insulin glargine 100units/mL injection"/>
          </coding>
          <text value="insulin glargine 100units/mL injection"/>
        </medicationCodeableConcept>
        <subject>
          <reference value="Patient/59530"/>
        </subject>
        <dosage>
          <text value="28 units before bed"/>
          <timing>
            <repeat>
              <frequency value="1"/>
              <period value="1"/>
              <periodUnit value="d"/>
            </repeat>
          </timing>
        </dosage>
      </MedicationStatement>
    </resource>
    <search>
      <mode value="match"/>
    </search>
  </entry>
  <entry>
    <fullUrl value="http://hapi.fhir.org/baseR4/MedicationStatement/58982"/>
    <resource>
      <MedicationStatement>
        <id value="58982"/>
        <meta>
          <versionId value="1"/>
          <lastUpdated value="2019-11-11T14:57:02.665+00:00"/>
          <source value="#suQYTTSaE5O4EZ6p"/>
          <profile value="http://hl7.org/fhir/uv/ips/StructureDefinition/medicationstatement-uv-ips"/>
        </meta>
        <status value="active"/>
        <medicationReference>
          <reference value="Medication/58988"/>
        </medicationReference>
        <subject>
          <reference value="Patient/59011"/>
        </subject>
        <dosage>
          <patientInstruction value="1 cps, 25mg x 2 die (8:00 - 20:00)"/>
          <timing>
            <repeat>
              <frequency value="2"/>
              <period value="1"/>
              <periodUnit value="d"/>
              <timeOfDay value="08:00"/>
              <timeOfDay value="20:00"/>
            </repeat>
          </timing>
          <route>
            <coding>
              <system value="http://snomed.info/sct"/>
              <code value="26643006"/>
              <display value="Oral use"/>
            </coding>
          </route>
          <doseAndRate>
            <doseQuantity>
              <value value="25"/>
              <unit value="mg"/>
              <system value="http://unitsofmeasure.org"/>
              <code value="mg"/>
            </doseQuantity>
          </doseAndRate>
        </dosage>
      </MedicationStatement>
    </resource>
    <search>
      <mode value="match"/>
    </search>
  </entry>
  <entry>
    <fullUrl value="http://hapi.fhir.org/baseR4/MedicationStatement/58983"/>
    <resource>
      <MedicationStatement>
        <id value="58983"/>
        <meta>
          <versionId value="1"/>
          <lastUpdated value="2019-11-11T14:57:02.665+00:00"/>
          <source value="#suQYTTSaE5O4EZ6p"/>
          <profile value="http://hl7.org/fhir/uv/ips/StructureDefinition/medicationstatement-uv-ips"/>
        </meta>
        <status value="active"/>
        <medicationReference>
          <reference value="Medication/58989"/>
        </medicationReference>
        <subject>
          <reference value="Patient/59011"/>
        </subject>
        <dosage>
          <patientInstruction value="1/2 cps, 20mg x 2 die (8:00 - 20:00)"/>
          <timing>
            <repeat>
              <frequency value="2"/>
              <period value="1"/>
              <periodUnit value="d"/>
              <timeOfDay value="08:00"/>
              <timeOfDay value="20:00"/>
            </repeat>
          </timing>
          <route>
            <coding>
              <system value="http://snomed.info/sct"/>
              <code value="26643006"/>
              <display value="Oral use"/>
            </coding>
          </route>
          <doseAndRate>
            <doseQuantity>
              <value value="20"/>
              <unit value="mg"/>
              <system value="http://unitsofmeasure.org"/>
              <code value="mg"/>
            </doseQuantity>
          </doseAndRate>
        </dosage>
      </MedicationStatement>
    </resource>
    <search>
      <mode value="match"/>
    </search>
  </entry>
  <entry>
    <fullUrl value="http://hapi.fhir.org/baseR4/MedicationStatement/58981"/>
    <resource>
      <MedicationStatement>
        <id value="58981"/>
        <meta>
          <versionId value="1"/>
          <lastUpdated value="2019-11-11T14:57:02.665+00:00"/>
          <source value="#suQYTTSaE5O4EZ6p"/>
          <profile value="http://hl7.org/fhir/uv/ips/StructureDefinition/medicationstatement-uv-ips"/>
        </meta>
        <status value="active"/>
        <medicationReference>
          <reference value="Medication/58987"/>
        </medicationReference>
        <subject>
          <reference value="Patient/59011"/>
        </subject>
        <dosage>
          <patientInstruction value="1 cps, 200mg x 2 die (8:00 - 20:00)"/>
          <timing>
            <repeat>
              <frequency value="2"/>
              <period value="1"/>
              <periodUnit value="d"/>
              <timeOfDay value="08:00"/>
              <timeOfDay value="20:00"/>
            </repeat>
          </timing>
          <route>
            <coding>
              <system value="http://snomed.info/sct"/>
              <code value="26643006"/>
              <display value="Oral use"/>
            </coding>
          </route>
          <doseAndRate>
            <doseQuantity>
              <value value="200"/>
              <unit value="mg"/>
              <system value="http://unitsofmeasure.org"/>
              <code value="mg"/>
            </doseQuantity>
          </doseAndRate>
        </dosage>
      </MedicationStatement>
    </resource>
    <search>
      <mode value="match"/>
    </search>
  </entry>
  <entry>
    <fullUrl value="http://hapi.fhir.org/baseR4/MedicationStatement/58986"/>
    <resource>
      <MedicationStatement>
        <id value="58986"/>
        <meta>
          <versionId value="1"/>
          <lastUpdated value="2019-11-11T14:57:02.665+00:00"/>
          <source value="#suQYTTSaE5O4EZ6p"/>
          <profile value="http://hl7.org/fhir/uv/ips/StructureDefinition/medicationstatement-uv-ips"/>
        </meta>
        <status value="active"/>
        <medicationReference>
          <reference value="Medication/58992"/>
        </medicationReference>
        <subject>
          <reference value="Patient/59011"/>
        </subject>
        <dosage>
          <patientInstruction value="1 cps 250mg die lun, mer, ven (14:00)"/>
          <timing>
            <repeat>
              <frequency value="3"/>
              <period value="1"/>
              <periodUnit value="wk"/>
              <dayOfWeek value="mon"/>
              <dayOfWeek value="wed"/>
              <dayOfWeek value="fri"/>
              <timeOfDay value="14:00"/>
            </repeat>
          </timing>
          <route>
            <coding>
              <system value="http://snomed.info/sct"/>
              <code value="26643006"/>
              <display value="Oral use"/>
            </coding>
          </route>
          <doseAndRate>
            <doseQuantity>
              <value value="20"/>
              <unit value="mg"/>
              <system value="http://unitsofmeasure.org"/>
              <code value="mg"/>
            </doseQuantity>
          </doseAndRate>
        </dosage>
      </MedicationStatement>
    </resource>
    <search>
      <mode value="match"/>
    </search>
  </entry>
  <entry>
    <fullUrl value="http://hapi.fhir.org/baseR4/MedicationStatement/58984"/>
    <resource>
      <MedicationStatement>
        <id value="58984"/>
        <meta>
          <versionId value="1"/>
          <lastUpdated value="2019-11-11T14:57:02.665+00:00"/>
          <source value="#suQYTTSaE5O4EZ6p"/>
          <profile value="http://hl7.org/fhir/uv/ips/StructureDefinition/medicationstatement-uv-ips"/>
        </meta>
        <status value="active"/>
        <medicationReference>
          <reference value="Medication/58990"/>
        </medicationReference>
        <subject>
          <reference value="Patient/59011"/>
        </subject>
        <dosage>
          <patientInstruction value="1 cps 10mg die (22:00)"/>
          <timing>
            <repeat>
              <frequency value="1"/>
              <period value="1"/>
              <periodUnit value="d"/>
              <timeOfDay value="22:00"/>
            </repeat>
          </timing>
          <route>
            <coding>
              <system value="http://snomed.info/sct"/>
              <code value="26643006"/>
              <display value="Oral use"/>
            </coding>
          </route>
          <doseAndRate>
            <doseQuantity>
              <value value="10"/>
              <unit value="mg"/>
              <system value="http://unitsofmeasure.org"/>
              <code value="mg"/>
            </doseQuantity>
          </doseAndRate>
        </dosage>
      </MedicationStatement>
    </resource>
    <search>
      <mode value="match"/>
    </search>
  </entry>
  <entry>
    <fullUrl value="http://hapi.fhir.org/baseR4/MedicationStatement/58985"/>
    <resource>
      <MedicationStatement>
        <id value="58985"/>
        <meta>
          <versionId value="1"/>
          <lastUpdated value="2019-11-11T14:57:02.665+00:00"/>
          <source value="#suQYTTSaE5O4EZ6p"/>
          <profile value="http://hl7.org/fhir/uv/ips/StructureDefinition/medicationstatement-uv-ips"/>
        </meta>
        <status value="active"/>
        <medicationReference>
          <reference value="Medication/58991"/>
        </medicationReference>
        <subject>
          <reference value="Patient/59011"/>
        </subject>
        <dosage>
          <patientInstruction value="1 cps 20mg die (14:00)"/>
          <timing>
            <repeat>
              <frequency value="1"/>
              <period value="1"/>
              <periodUnit value="d"/>
              <timeOfDay value="14:00"/>
            </repeat>
          </timing>
          <route>
            <coding>
              <system value="http://snomed.info/sct"/>
              <code value="26643006"/>
              <display value="Oral use"/>
            </coding>
          </route>
          <doseAndRate>
            <doseQuantity>
              <value value="20"/>
              <unit value="mg"/>
              <system value="http://unitsofmeasure.org"/>
              <code value="mg"/>
            </doseQuantity>
          </doseAndRate>
        </dosage>
      </MedicationStatement>
    </resource>
    <search>
      <mode value="match"/>
    </search>
  </entry>
  <entry>
    <fullUrl value="http://hapi.fhir.org/baseR4/MedicationStatement/47975"/>
    <resource>
      <MedicationStatement>
        <id value="47975"/>
        <meta>
          <versionId value="1"/>
          <lastUpdated value="2019-10-15T22:46:55.219+00:00"/>
          <source value="#hljuAlgBACY736ZB"/>
        </meta>
        <text>
          <status value="generated"/>
          <div>aspirin 81mg once daily</div>
        </text>
        <contained>
          <Medication>
            <id value="med1"/>
            <code>
              <coding>
                <system value="http://snomed.info/ct"/>
                <code value="370167008 "/>
                <display value="aspirin 81mg e/c tablet "/>
              </coding>
              <text value="aspirin 81mg e/c tablet"/>
            </code>
          </Medication>
        </contained>
        <status value="active"/>
        <medicationReference>
          <reference value="#med1"/>
          <display value="aspirin 81mg e/c tablet"/>
        </medicationReference>
        <subject>
          <reference value="Patient/47920"/>
        </subject>
        <dosage>
          <text value="once daily"/>
          <timing>
            <repeat>
              <frequency value="1"/>
              <period value="1"/>
              <periodUnit value="d"/>
            </repeat>
          </timing>
        </dosage>
      </MedicationStatement>
    </resource>
    <search>
      <mode value="match"/>
    </search>
  </entry>
  <entry>
    <fullUrl value="http://hapi.fhir.org/baseR4/MedicationStatement/46433"/>
    <resource>
      <MedicationStatement>
        <id value="46433"/>
        <meta>
          <versionId value="1"/>
          <lastUpdated value="2019-10-14T03:33:31.429+00:00"/>
          <source value="#68ad60f8a1fbb2d6"/>
        </meta>
        <text>
          <status value="generated"/>
          <div>salbutamol inhaler 2 puffs every 4 hours as required</div>
        </text>
        <status value="active"/>
        <medicationCodeableConcept>
          <coding>
            <system value="http://snomed.info/ct"/>
            <code value=" 320176004"/>
            <display value=" salbutamol 100micrograms/inhaler "/>
          </coding>
          <text value="salbutamol 100micrograms/inhaler"/>
        </medicationCodeableConcept>
        <subject>
          <reference value="Patient/46379"/>
        </subject>
        <dosage>
          <text value="2 puffs every 4 hours as needed"/>
          <timing>
            <repeat>
              <frequency value="1"/>
              <period value="4"/>
              <periodUnit value="h"/>
            </repeat>
          </timing>
          <asNeededBoolean value="true"/>
        </dosage>
      </MedicationStatement>
    </resource>
    <search>
      <mode value="match"/>
    </search>
  </entry>
  <entry>
    <fullUrl value="http://hapi.fhir.org/baseR4/MedicationStatement/46447"/>
    <resource>
      <MedicationStatement>
        <id value="46447"/>
        <meta>
          <versionId value="1"/>
          <lastUpdated value="2019-10-14T03:33:31.429+00:00"/>
          <source value="#68ad60f8a1fbb2d6"/>
        </meta>
        <text>
          <status value="generated"/>
          <div>terbinafine 250mg once daily</div>
        </text>
        <status value="active"/>
        <medicationCodeableConcept>
          <coding>
            <system value="http://snomed.info/ct"/>
            <code value="324718007"/>
            <display value="terbinafine 250mg"/>
          </coding>
          <text value="terbinafine 250mg"/>
        </medicationCodeableConcept>
        <subject>
          <reference value="Patient/46379"/>
        </subject>
        <dosage>
          <text value="1 tab once daily"/>
          <timing>
            <repeat>
              <frequency value="1"/>
              <period value="1"/>
              <periodUnit value="d"/>
            </repeat>
          </timing>
          <asNeededBoolean value="true"/>
        </dosage>
      </MedicationStatement>
    </resource>
    <search>
      <mode value="match"/>
    </search>
  </entry>
  <entry>
    <fullUrl value="http://hapi.fhir.org/baseR4/MedicationStatement/46436"/>
    <resource>
      <MedicationStatement>
        <id value="46436"/>
        <meta>
          <versionId value="1"/>
          <lastUpdated value="2019-10-14T03:33:31.429+00:00"/>
          <source value="#68ad60f8a1fbb2d6"/>
        </meta>
        <text>
          <status value="generated"/>
          <div>carvedilol 25 mg twice daily</div>
        </text>
        <status value="active"/>
        <medicationCodeableConcept>
          <coding>
            <system value="http://snomed.info/ct"/>
            <code value="318632005"/>
            <display value="carvedilol 25 mg"/>
          </coding>
          <text value="carvedilol 25 mg"/>
        </medicationCodeableConcept>
        <subject>
          <reference value="Patient/46379"/>
        </subject>
        <dosage>
          <text value="twice daily"/>
          <timing>
            <repeat>
              <frequency value="2"/>
              <period value="1"/>
              <periodUnit value="d"/>
            </repeat>
          </timing>
        </dosage>
      </MedicationStatement>
    </resource>
    <search>
      <mode value="match"/>
    </search>
  </entry>
  <entry>
    <fullUrl value="http://hapi.fhir.org/baseR4/MedicationStatement/46446"/>
    <resource>
      <MedicationStatement>
        <id value="46446"/>
        <meta>
          <versionId value="1"/>
          <lastUpdated value="2019-10-14T03:33:31.429+00:00"/>
          <source value="#68ad60f8a1fbb2d6"/>
        </meta>
        <text>
          <status value="generated"/>
          <div>simvastatin 40mg once daily</div>
        </text>
        <status value="active"/>
        <medicationCodeableConcept>
          <coding>
            <system value="http://snomed.info/ct"/>
            <code value="429374003"/>
            <display value="simvastatin 40mg"/>
          </coding>
          <text value="simvastatin 40mg"/>
        </medicationCodeableConcept>
        <subject>
          <reference value="Patient/46379"/>
        </subject>
        <dosage>
          <text value="1 tab once daily"/>
          <timing>
            <repeat>
              <frequency value="1"/>
              <period value="1"/>
              <periodUnit value="d"/>
            </repeat>
          </timing>
          <asNeededBoolean value="true"/>
        </dosage>
      </MedicationStatement>
    </resource>
    <search>
      <mode value="match"/>
    </search>
  </entry>
  <entry>
    <fullUrl value="http://hapi.fhir.org/baseR4/MedicationStatement/46435"/>
    <resource>
      <MedicationStatement>
        <id value="46435"/>
        <meta>
          <versionId value="1"/>
          <lastUpdated value="2019-10-14T03:33:31.429+00:00"/>
          <source value="#68ad60f8a1fbb2d6"/>
        </meta>
        <text>
          <status value="generated"/>
          <div>beclomethasone 2 puffs twice daily</div>
        </text>
        <status value="active"/>
        <medicationCodeableConcept>
          <coding>
            <system value="http://snomed.info/ct"/>
            <code value="376733004"/>
            <display value="beclomethasone dipropionate 40mcg aerosol"/>
          </coding>
          <text value="beclomethasone dipropionate 40mcg aerosol"/>
        </medicationCodeableConcept>
        <subject>
          <reference value="Patient/46379"/>
        </subject>
        <dosage>
          <text value="2 puffs twice daily"/>
          <timing>
            <repeat>
              <frequency value="2"/>
              <period value="1"/>
              <periodUnit value="d"/>
            </repeat>
          </timing>
          <asNeededBoolean value="false"/>
        </dosage>
      </MedicationStatement>
    </resource>
    <search>
      <mode value="match"/>
    </search>
  </entry>
  <entry>
    <fullUrl value="http://hapi.fhir.org/baseR4/MedicationStatement/46364"/>
    <resource>
      <MedicationStatement>
        <id value="46364"/>
        <meta>
          <versionId value="1"/>
          <lastUpdated value="2019-10-12T22:45:51.292+00:00"/>
          <source value="#6a3fc812095072cc"/>
        </meta>
        <status value="active"/>
        <medicationCodeableConcept>
          <coding>
            <system value="http://snomed.info/ct"/>
            <code value="321323009"/>
            <display value="buspirone 5mg"/>
          </coding>
        </medicationCodeableConcept>
        <subject>
          <reference value="Patient/46292"/>
        </subject>
        <dosage>
          <text value="3 times daily"/>
          <timing>
            <repeat>
              <frequency value="3"/>
              <period value="1"/>
              <periodUnit value="d"/>
            </repeat>
          </timing>
        </dosage>
      </MedicationStatement>
    </resource>
    <search>
      <mode value="match"/>
    </search>
  </entry>
  <entry>
    <fullUrl value="http://hapi.fhir.org/baseR4/MedicationStatement/46353"/>
    <resource>
      <MedicationStatement>
        <id value="46353"/>
        <meta>
          <versionId value="1"/>
          <lastUpdated value="2019-10-12T22:45:51.292+00:00"/>
          <source value="#6a3fc812095072cc"/>
        </meta>
        <text>
          <status value="generated"/>
          <div>insulin glargine 100units/mL 28 units nocte</div>
        </text>
        <status value="active"/>
        <medicationCodeableConcept>
          <coding>
            <system value="http://snomed.info/ct"/>
            <code value="400847007"/>
            <display value="insulin glargine 100units/mL injection"/>
          </coding>
          <text value="insulin glargine 100units/mL injection"/>
        </medicationCodeableConcept>
        <subject>
          <reference value="Patient/46292"/>
        </subject>
        <dosage>
          <text value="28 units before bed"/>
          <timing>
            <repeat>
              <frequency value="1"/>
              <period value="1"/>
              <periodUnit value="d"/>
            </repeat>
          </timing>
        </dosage>
      </MedicationStatement>
    </resource>
    <search>
      <mode value="match"/>
    </search>
  </entry>
  <entry>
    <fullUrl value="http://hapi.fhir.org/baseR4/MedicationStatement/46363"/>
    <resource>
      <MedicationStatement>
        <id value="46363"/>
        <meta>
          <versionId value="1"/>
          <lastUpdated value="2019-10-12T22:45:51.292+00:00"/>
          <source value="#6a3fc812095072cc"/>
        </meta>
        <text>
          <status value="generated"/>
          <div>isosorbide mononitrate 20mg once daily</div>
        </text>
        <status value="active"/>
        <medicationCodeableConcept>
          <coding>
            <system value="http://snomed.info/ct"/>
            <code value="319134001"/>
            <display value="isosorbide mononitrate 20mg"/>
          </coding>
          <text value="isosorbide mononitrate 20mg"/>
        </medicationCodeableConcept>
        <subject>
          <reference value="Patient/46292"/>
        </subject>
        <dosage>
          <text value="once daily at bedtime"/>
          <timing>
            <repeat>
              <frequency value="1"/>
              <period value="1"/>
              <periodUnit value="d"/>
            </repeat>
          </timing>
        </dosage>
      </MedicationStatement>
    </resource>
    <search>
      <mode value="match"/>
    </search>
  </entry>
  <entry>
    <fullUrl value="http://hapi.fhir.org/baseR4/MedicationStatement/46352"/>
    <resource>
      <MedicationStatement>
        <id value="46352"/>
        <meta>
          <versionId value="1"/>
          <lastUpdated value="2019-10-12T22:45:51.292+00:00"/>
          <source value="#6a3fc812095072cc"/>
        </meta>
        <text>
          <status value="generated"/>
          <div>gabapentin 600mg twice daily</div>
        </text>
        <status value="active"/>
        <medicationCodeableConcept>
          <coding>
            <system value="http://snomed.info/ct"/>
            <code value="323021008"/>
            <display value="gabapentin 600mg"/>
          </coding>
          <text value="gabapentin 600mg"/>
        </medicationCodeableConcept>
        <subject>
          <reference value="Patient/46292"/>
        </subject>
        <dosage>
          <text value="twice daily"/>
          <timing>
            <repeat>
              <frequency value="2"/>
              <period value="1"/>
              <periodUnit value="d"/>
            </repeat>
          </timing>
        </dosage>
      </MedicationStatement>
    </resource>
    <search>
      <mode value="match"/>
    </search>
  </entry>
  <entry>
    <fullUrl value="http://hapi.fhir.org/baseR4/Patient/47920"/>
    <resource>
      <Patient>
        <id value="47920"/>
        <meta>
          <versionId value="1"/>
          <lastUpdated value="2019-10-15T22:46:50.897+00:00"/>
          <source value="#TK86u4H1UZqyjehq"/>
        </meta>
        <text>
          <status value="generated"/>
          <div>Max Morris</div>
        </text>
        <name>
          <use value="official"/>
          <text value="Max Morris"/>
          <family value="Morris"/>
          <given value="Max"/>
        </name>
        <gender value="male"/>
        <birthDate value="2019-10-15"/>
      </Patient>
    </resource>
    <search>
      <mode value="include"/>
    </search>
  </entry>
  <entry>
    <fullUrl value="http://hapi.fhir.org/baseR4/Patient/59011"/>
    <resource>
      <Patient>
        <id value="59011"/>
        <meta>
          <versionId value="1"/>
          <lastUpdated value="2019-11-11T14:57:02.665+00:00"/>
          <source value="#suQYTTSaE5O4EZ6p"/>
        </meta>
        <text>
          <status value="generated"/>
          <div>
            <div class="hapiHeaderText">Mario 
                     <b>ROSSI </b>
                  </div>
            <table class="hapiPropertyTable">
              <tbody>
                <tr>
                  <td>Identifier</td>
                  <td>RSSMRA60A01D663E</td>
                </tr>
                <tr>
                  <td>Address</td>
                  <td>
                    <span>Piazza del Duomo </span>
                    <br/>
                    <span>Pisa </span>
                    <span>Italia </span>
                  </td>
                </tr>
                <tr>
                  <td>Date of birth</td>
                  <td>
                    <span>01 January 1960</span>
                  </td>
                </tr>
              </tbody>
            </table>
          </div>
        </text>
        <identifier>
          <type>
            <coding>
              <system value="http://terminology.hl7.org/CodeSystem/v2-0203"/>
              <code value="TAX"/>
            </coding>
          </type>
          <value value="RSSMRA60A01D663E"/>
        </identifier>
        <name>
          <family value="Rossi"/>
          <given value="Mario"/>
        </name>
        <telecom>
          <system value="phone"/>
          <value value="+393391234567"/>
          <use value="mobile"/>
        </telecom>
        <gender value="male"/>
        <birthDate value="1960-01-01"/>
        <address>
          <use value="home"/>
          <line value="Piazza del Duomo"/>
          <city value="Pisa"/>
          <state value="Italia"/>
          <postalCode value="56011"/>
        </address>
        <generalPractitioner>
          <reference value="Practitioner/59010"/>
        </generalPractitioner>
      </Patient>
    </resource>
    <search>
      <mode value="include"/>
    </search>
  </entry>
  <entry>
    <fullUrl value="http://hapi.fhir.org/baseR4/Patient/46292"/>
    <resource>
      <Patient>
        <id value="46292"/>
        <meta>
          <versionId value="1"/>
          <lastUpdated value="2019-10-12T22:45:46.634+00:00"/>
          <source value="#d99f66de26ca6c9c"/>
        </meta>
        <text>
          <status value="generated"/>
          <div>Zara Singh</div>
        </text>
        <name>
          <use value="official"/>
          <text value="Zara Singh"/>
          <family value="Singh"/>
          <given value="Zara"/>
        </name>
        <gender value="female"/>
        <birthDate value="2019-10-12"/>
      </Patient>
    </resource>
    <search>
      <mode value="include"/>
    </search>
  </entry>
  <entry>
    <fullUrl value="http://hapi.fhir.org/baseR4/Patient/59530"/>
    <resource>
      <Patient>
        <id value="59530"/>
        <meta>
          <versionId value="2"/>
          <lastUpdated value="2020-01-18T12:21:58.255+00:00"/>
          <source value="#38MRzqtxNEbOKd3L"/>
        </meta>
        <text>
          <status value="generated"/>
          <div>
            <div class="hapiHeaderText">Anna 
                     <b>SINGH </b>
                  </div>
            <table class="hapiPropertyTable">
              <tbody>
                <tr>
                  <td>Date of birth</td>
                  <td>
                    <span>12 November 2019</span>
                  </td>
                </tr>
              </tbody>
            </table>
          </div>
        </text>
        <name>
          <family value="Singh"/>
          <given value="Anna"/>
        </name>
        <gender value="female"/>
        <birthDate value="2019-11-12"/>
      </Patient>
    </resource>
    <search>
      <mode value="include"/>
    </search>
  </entry>
  <entry>
    <fullUrl value="http://hapi.fhir.org/baseR4/Patient/46379"/>
    <resource>
      <Patient>
        <id value="46379"/>
        <meta>
          <versionId value="1"/>
          <lastUpdated value="2019-10-14T03:33:27.185+00:00"/>
          <source value="#150cf19d4ab5354b"/>
        </meta>
        <text>
          <status value="generated"/>
          <div>Isaac Hughes</div>
        </text>
        <identifier>
          <system value="http://clinfhir.com/fhir/NamingSystem/identifier"/>
          <value value="13"/>
        </identifier>
        <name>
          <use value="official"/>
          <text value="Isaac Hughes"/>
          <family value="Hughes"/>
          <given value="Isaac"/>
        </name>
        <gender value="male"/>
        <birthDate value="2019-10-13"/>
      </Patient>
    </resource>
    <search>
      <mode value="include"/>
    </search>
  </entry>
</Bundle>
