<?xml version="1.0" encoding="UTF-8"?>
<Bundle>
  <id value="15792624-5f41-4e1b-89cd-99bb6d64f628"/>
  <meta>
    <lastUpdated value="2020-05-31T19:18:49.635+00:00"/>
  </meta>
  <type value="searchset"/>
  <total value="5700"/>
  <link>
    <relation value="self"/>
    <url value="http://hapi.fhir.org/baseR4?_getpages=15792624-5f41-4e1b-89cd-99bb6d64f628&amp;_getpagesoffset=5520&amp;_count=20&amp;_format=xml&amp;_pretty=true&amp;_bundletype=searchset"/>
  </link>
  <link>
    <relation value="next"/>
    <url value="http://hapi.fhir.org/baseR4?_getpages=15792624-5f41-4e1b-89cd-99bb6d64f628&amp;_getpagesoffset=5540&amp;_count=20&amp;_format=xml&amp;_pretty=true&amp;_bundletype=searchset"/>
  </link>
  <link>
    <relation value="previous"/>
    <url value="http://hapi.fhir.org/baseR4?_getpages=15792624-5f41-4e1b-89cd-99bb6d64f628&amp;_getpagesoffset=5500&amp;_count=20&amp;_format=xml&amp;_pretty=true&amp;_bundletype=searchset"/>
  </link>
  <entry>
    <fullUrl value="http://hapi.fhir.org/baseR4/MedicationStatement/45716"/>
    <resource>
      <MedicationStatement>
        <id value="45716"/>
        <meta>
          <versionId value="1"/>
          <lastUpdated value="2019-10-11T16:30:24.411+00:00"/>
          <source value="#d688c24e6b9f7889"/>
        </meta>
        <text>
          <status value="generated"/>
          <div>citalopram 20 mg once daily</div>
        </text>
        <status value="active"/>
        <medicationCodeableConcept>
          <coding>
            <system value="http://snomed.info/ct"/>
            <code value="321987003"/>
            <display value="citalopram 20 mg"/>
          </coding>
          <text value="citalopram 20 mg"/>
        </medicationCodeableConcept>
        <subject>
          <reference value="Patient/45657"/>
        </subject>
        <dosage>
          <text value="once daily"/>
          <timing>
            <repeat>
              <frequency value="1"/>
              <period value="1"/>
              <periodUnit value="d"/>
            </repeat>
          </timing>
        </dosage>
      </MedicationStatement>
    </resource>
    <search>
      <mode value="match"/>
    </search>
  </entry>
  <entry>
    <fullUrl value="http://hapi.fhir.org/baseR4/MedicationStatement/45726"/>
    <resource>
      <MedicationStatement>
        <id value="45726"/>
        <meta>
          <versionId value="1"/>
          <lastUpdated value="2019-10-11T16:30:24.411+00:00"/>
          <source value="#d688c24e6b9f7889"/>
        </meta>
        <text>
          <status value="generated"/>
          <div>zolpidem 5mg sublingual tablet, 1 nocte</div>
        </text>
        <status value="active"/>
        <medicationCodeableConcept>
          <coding>
            <system value="http://snomed.info/ct"/>
            <code value="442160008"/>
            <display value="zolpidem 5mg sublingual tablet"/>
          </coding>
          <text value="zolpidem 5mg sublingual tablet"/>
        </medicationCodeableConcept>
        <subject>
          <reference value="Patient/45657"/>
        </subject>
        <dosage>
          <text value="1 tab before bed"/>
          <timing>
            <repeat>
              <frequency value="1"/>
              <period value="1"/>
              <periodUnit value="d"/>
            </repeat>
          </timing>
        </dosage>
      </MedicationStatement>
    </resource>
    <search>
      <mode value="match"/>
    </search>
  </entry>
  <entry>
    <fullUrl value="http://hapi.fhir.org/baseR4/MedicationStatement/46600"/>
    <resource>
      <MedicationStatement>
        <id value="46600"/>
        <meta>
          <versionId value="1"/>
          <lastUpdated value="2019-10-14T04:43:41.324+00:00"/>
          <source value="#3eddf84a0dc94947"/>
        </meta>
        <status value="completed"/>
        <statusReason>
          <coding>
            <system value="http://snomed.info/sct"/>
            <code value="182862001"/>
            <display value="Drug not taken - dislike taste"/>
          </coding>
        </statusReason>
        <category>
          <coding>
            <system value="http://terminology.hl7.org/CodeSystem/medication-statement-category"/>
            <code value="inpatient"/>
            <display value="Inpatient"/>
          </coding>
        </category>
        <medicationCodeableConcept>
          <coding>
            <system value="http://snomed.info/sct"/>
            <code value="261000"/>
            <display value="Codeine phosphate"/>
          </coding>
        </medicationCodeableConcept>
        <subject>
          <reference value="Patient/39089"/>
        </subject>
        <context>
          <reference value="Encounter/46589"/>
        </context>
        <effectivePeriod>
          <start value="2009-09-01T04:10:38.000+00:00"/>
          <end value="2009-09-01T04:10:38.000+00:00"/>
        </effectivePeriod>
        <dateAsserted value="2009-09-01T04:10:38"/>
        <reasonCode>
          <coding>
            <system value="http://snomed.info/sct"/>
            <code value="109006"/>
            <display value="Anxiety disorder of childhood OR adolescence"/>
          </coding>
        </reasonCode>
      </MedicationStatement>
    </resource>
    <search>
      <mode value="match"/>
    </search>
  </entry>
  <entry>
    <fullUrl value="http://hapi.fhir.org/baseR4/MedicationStatement/46584"/>
    <resource>
      <MedicationStatement>
        <id value="46584"/>
        <meta>
          <versionId value="1"/>
          <lastUpdated value="2019-10-14T04:40:02.440+00:00"/>
          <source value="#d1cfa96968b44eba"/>
        </meta>
        <status value="completed"/>
        <statusReason>
          <coding>
            <system value="http://snomed.info/sct"/>
            <code value="182862001"/>
            <display value="Drug not taken - dislike taste"/>
          </coding>
        </statusReason>
        <category>
          <coding>
            <system value="http://terminology.hl7.org/CodeSystem/medication-statement-category"/>
            <code value="inpatient"/>
            <display value="Inpatient"/>
          </coding>
        </category>
        <medicationCodeableConcept>
          <coding>
            <system value="http://snomed.info/sct"/>
            <code value="261000"/>
            <display value="Codeine phosphate"/>
          </coding>
        </medicationCodeableConcept>
        <subject>
          <reference value="Patient/39089"/>
        </subject>
        <context>
          <reference value="Encounter/46573"/>
        </context>
        <effectivePeriod>
          <start value="2009-09-01T04:10:38.000+00:00"/>
          <end value="2009-09-01T04:10:38.000+00:00"/>
        </effectivePeriod>
        <dateAsserted value="2009-09-01T04:10:38"/>
        <reasonCode>
          <coding>
            <system value="http://snomed.info/sct"/>
            <code value="109006"/>
            <display value="Anxiety disorder of childhood OR adolescence"/>
          </coding>
        </reasonCode>
      </MedicationStatement>
    </resource>
    <search>
      <mode value="match"/>
    </search>
  </entry>
  <entry>
    <fullUrl value="http://hapi.fhir.org/baseR4/MedicationStatement/46568"/>
    <resource>
      <MedicationStatement>
        <id value="46568"/>
        <meta>
          <versionId value="1"/>
          <lastUpdated value="2019-10-14T04:32:08.814+00:00"/>
          <source value="#30492ec362f84739"/>
        </meta>
        <status value="completed"/>
        <statusReason>
          <coding>
            <system value="http://snomed.info/sct"/>
            <code value="182862001"/>
            <display value="Drug not taken - dislike taste"/>
          </coding>
        </statusReason>
        <category>
          <coding>
            <system value="http://terminology.hl7.org/CodeSystem/medication-statement-category"/>
            <code value="inpatient"/>
            <display value="Inpatient"/>
          </coding>
        </category>
        <medicationCodeableConcept>
          <coding>
            <system value="http://snomed.info/sct"/>
            <code value="261000"/>
            <display value="Codeine phosphate"/>
          </coding>
        </medicationCodeableConcept>
        <subject>
          <reference value="Patient/39089"/>
        </subject>
        <context>
          <reference value="Encounter/46557"/>
        </context>
        <effectivePeriod>
          <start value="2009-09-01T04:10:38.000+00:00"/>
          <end value="2009-09-01T04:10:38.000+00:00"/>
        </effectivePeriod>
        <dateAsserted value="2009-09-01T04:10:38"/>
        <reasonCode>
          <coding>
            <system value="http://snomed.info/sct"/>
            <code value="109006"/>
            <display value="Anxiety disorder of childhood OR adolescence"/>
          </coding>
        </reasonCode>
      </MedicationStatement>
    </resource>
    <search>
      <mode value="match"/>
    </search>
  </entry>
  <entry>
    <fullUrl value="http://hapi.fhir.org/baseR4/MedicationStatement/46552"/>
    <resource>
      <MedicationStatement>
        <id value="46552"/>
        <meta>
          <versionId value="1"/>
          <lastUpdated value="2019-10-14T04:29:11.847+00:00"/>
          <source value="#27bc1b1189b165d2"/>
        </meta>
        <status value="completed"/>
        <statusReason>
          <coding>
            <system value="http://snomed.info/sct"/>
            <code value="182862001"/>
            <display value="Drug not taken - dislike taste"/>
          </coding>
        </statusReason>
        <category>
          <coding>
            <system value="http://terminology.hl7.org/CodeSystem/medication-statement-category"/>
            <code value="inpatient"/>
            <display value="Inpatient"/>
          </coding>
        </category>
        <medicationCodeableConcept>
          <coding>
            <system value="http://snomed.info/sct"/>
            <code value="261000"/>
            <display value="Codeine phosphate"/>
          </coding>
        </medicationCodeableConcept>
        <subject>
          <reference value="Patient/39089"/>
        </subject>
        <context>
          <reference value="Encounter/46541"/>
        </context>
        <effectivePeriod>
          <start value="2009-09-01T04:10:38.000+00:00"/>
          <end value="2009-09-01T04:10:38.000+00:00"/>
        </effectivePeriod>
        <dateAsserted value="2009-09-01T04:10:38"/>
        <reasonCode>
          <coding>
            <system value="http://snomed.info/sct"/>
            <code value="109006"/>
            <display value="Anxiety disorder of childhood OR adolescence"/>
          </coding>
        </reasonCode>
      </MedicationStatement>
    </resource>
    <search>
      <mode value="match"/>
    </search>
  </entry>
  <entry>
    <fullUrl value="http://hapi.fhir.org/baseR4/MedicationStatement/46536"/>
    <resource>
      <MedicationStatement>
        <id value="46536"/>
        <meta>
          <versionId value="1"/>
          <lastUpdated value="2019-10-14T04:28:27.949+00:00"/>
          <source value="#2b2b9a200c8cb809"/>
        </meta>
        <status value="completed"/>
        <statusReason>
          <coding>
            <system value="http://snomed.info/sct"/>
            <code value="182862001"/>
            <display value="Drug not taken - dislike taste"/>
          </coding>
        </statusReason>
        <category>
          <coding>
            <system value="http://terminology.hl7.org/CodeSystem/medication-statement-category"/>
            <code value="inpatient"/>
            <display value="Inpatient"/>
          </coding>
        </category>
        <medicationCodeableConcept>
          <coding>
            <system value="http://snomed.info/sct"/>
            <code value="261000"/>
            <display value="Codeine phosphate"/>
          </coding>
        </medicationCodeableConcept>
        <subject>
          <reference value="Patient/39089"/>
        </subject>
        <context>
          <reference value="Encounter/46525"/>
        </context>
        <effectivePeriod>
          <start value="2009-09-01T04:10:38.000+00:00"/>
          <end value="2009-09-01T04:10:38.000+00:00"/>
        </effectivePeriod>
        <dateAsserted value="2009-09-01T04:10:38"/>
        <reasonCode>
          <coding>
            <system value="http://snomed.info/sct"/>
            <code value="109006"/>
            <display value="Anxiety disorder of childhood OR adolescence"/>
          </coding>
        </reasonCode>
      </MedicationStatement>
    </resource>
    <search>
      <mode value="match"/>
    </search>
  </entry>
  <entry>
    <fullUrl value="http://hapi.fhir.org/baseR4/MedicationStatement/46520"/>
    <resource>
      <MedicationStatement>
        <id value="46520"/>
        <meta>
          <versionId value="1"/>
          <lastUpdated value="2019-10-14T04:27:13.858+00:00"/>
          <source value="#b91e450a7f25b092"/>
        </meta>
        <status value="completed"/>
        <statusReason>
          <coding>
            <system value="http://snomed.info/sct"/>
            <code value="182862001"/>
            <display value="Drug not taken - dislike taste"/>
          </coding>
        </statusReason>
        <category>
          <coding>
            <system value="http://terminology.hl7.org/CodeSystem/medication-statement-category"/>
            <code value="inpatient"/>
            <display value="Inpatient"/>
          </coding>
        </category>
        <medicationCodeableConcept>
          <coding>
            <system value="http://snomed.info/sct"/>
            <code value="261000"/>
            <display value="Codeine phosphate"/>
          </coding>
        </medicationCodeableConcept>
        <subject>
          <reference value="Patient/39089"/>
        </subject>
        <context>
          <reference value="Encounter/46509"/>
        </context>
        <effectivePeriod>
          <start value="2009-09-01T04:10:38.000+00:00"/>
          <end value="2009-09-01T04:10:38.000+00:00"/>
        </effectivePeriod>
        <dateAsserted value="2009-09-01T04:10:38"/>
        <reasonCode>
          <coding>
            <system value="http://snomed.info/sct"/>
            <code value="109006"/>
            <display value="Anxiety disorder of childhood OR adolescence"/>
          </coding>
        </reasonCode>
      </MedicationStatement>
    </resource>
    <search>
      <mode value="match"/>
    </search>
  </entry>
  <entry>
    <fullUrl value="http://hapi.fhir.org/baseR4/MedicationStatement/46504"/>
    <resource>
      <MedicationStatement>
        <id value="46504"/>
        <meta>
          <versionId value="1"/>
          <lastUpdated value="2019-10-14T04:26:18.233+00:00"/>
          <source value="#181250fe321e94c2"/>
        </meta>
        <status value="completed"/>
        <statusReason>
          <coding>
            <system value="http://snomed.info/sct"/>
            <code value="182862001"/>
            <display value="Drug not taken - dislike taste"/>
          </coding>
        </statusReason>
        <category>
          <coding>
            <system value="http://terminology.hl7.org/CodeSystem/medication-statement-category"/>
            <code value="inpatient"/>
            <display value="Inpatient"/>
          </coding>
        </category>
        <medicationCodeableConcept>
          <coding>
            <system value="http://snomed.info/sct"/>
            <code value="261000"/>
            <display value="Codeine phosphate"/>
          </coding>
        </medicationCodeableConcept>
        <subject>
          <reference value="Patient/39089"/>
        </subject>
        <context>
          <reference value="Encounter/46493"/>
        </context>
        <effectivePeriod>
          <start value="2009-09-01T04:10:38.000+00:00"/>
          <end value="2009-09-01T04:10:38.000+00:00"/>
        </effectivePeriod>
        <dateAsserted value="2009-09-01T04:10:38"/>
        <reasonCode>
          <coding>
            <system value="http://snomed.info/sct"/>
            <code value="109006"/>
            <display value="Anxiety disorder of childhood OR adolescence"/>
          </coding>
        </reasonCode>
      </MedicationStatement>
    </resource>
    <search>
      <mode value="match"/>
    </search>
  </entry>
  <entry>
    <fullUrl value="http://hapi.fhir.org/baseR4/MedicationStatement/46487"/>
    <resource>
      <MedicationStatement>
        <id value="46487"/>
        <meta>
          <versionId value="1"/>
          <lastUpdated value="2019-10-14T03:51:44.883+00:00"/>
          <source value="#65dbbcd611ea3c47"/>
        </meta>
        <status value="completed"/>
        <statusReason>
          <coding>
            <system value="http://snomed.info/sct"/>
            <code value="182862001"/>
            <display value="Drug not taken - dislike taste"/>
          </coding>
        </statusReason>
        <category>
          <coding>
            <system value="http://terminology.hl7.org/CodeSystem/medication-statement-category"/>
            <code value="inpatient"/>
            <display value="Inpatient"/>
          </coding>
        </category>
        <medicationCodeableConcept>
          <coding>
            <system value="http://snomed.info/sct"/>
            <code value="261000"/>
            <display value="Codeine phosphate"/>
          </coding>
        </medicationCodeableConcept>
        <subject>
          <reference value="Patient/39089"/>
        </subject>
        <context>
          <reference value="Encounter/46476"/>
        </context>
        <effectivePeriod>
          <start value="2009-09-01T04:10:38.000+00:00"/>
          <end value="2009-09-01T04:10:38.000+00:00"/>
        </effectivePeriod>
        <dateAsserted value="2009-09-01T04:10:38"/>
        <reasonCode>
          <coding>
            <system value="http://snomed.info/sct"/>
            <code value="109006"/>
            <display value="Anxiety disorder of childhood OR adolescence"/>
          </coding>
        </reasonCode>
      </MedicationStatement>
    </resource>
    <search>
      <mode value="match"/>
    </search>
  </entry>
  <entry>
    <fullUrl value="http://hapi.fhir.org/baseR4/MedicationStatement/46471"/>
    <resource>
      <MedicationStatement>
        <id value="46471"/>
        <meta>
          <versionId value="1"/>
          <lastUpdated value="2019-10-14T03:50:32.049+00:00"/>
          <source value="#89f8c96ad24b0ce5"/>
        </meta>
        <status value="completed"/>
        <statusReason>
          <coding>
            <system value="http://snomed.info/sct"/>
            <code value="182862001"/>
            <display value="Drug not taken - dislike taste"/>
          </coding>
        </statusReason>
        <category>
          <coding>
            <system value="http://terminology.hl7.org/CodeSystem/medication-statement-category"/>
            <code value="inpatient"/>
            <display value="Inpatient"/>
          </coding>
        </category>
        <medicationCodeableConcept>
          <coding>
            <system value="http://snomed.info/sct"/>
            <code value="261000"/>
            <display value="Codeine phosphate"/>
          </coding>
        </medicationCodeableConcept>
        <subject>
          <reference value="Patient/39089"/>
        </subject>
        <context>
          <reference value="Encounter/46460"/>
        </context>
        <effectivePeriod>
          <start value="2009-09-01T04:10:38.000+00:00"/>
          <end value="2009-09-01T04:10:38.000+00:00"/>
        </effectivePeriod>
        <dateAsserted value="2009-09-01T04:10:38"/>
        <reasonCode>
          <coding>
            <system value="http://snomed.info/sct"/>
            <code value="109006"/>
            <display value="Anxiety disorder of childhood OR adolescence"/>
          </coding>
        </reasonCode>
      </MedicationStatement>
    </resource>
    <search>
      <mode value="match"/>
    </search>
  </entry>
  <entry>
    <fullUrl value="http://hapi.fhir.org/baseR4/MedicationStatement/46441"/>
    <resource>
      <MedicationStatement>
        <id value="46441"/>
        <meta>
          <versionId value="1"/>
          <lastUpdated value="2019-10-14T03:33:31.429+00:00"/>
          <source value="#68ad60f8a1fbb2d6"/>
        </meta>
        <text>
          <status value="generated"/>
          <div>losartan 100mg + hydrochlorothiazide 12.5mg once daily</div>
        </text>
        <status value="active"/>
        <medicationCodeableConcept>
          <coding>
            <system value="http://snomed.info/ct"/>
            <code value="444639002"/>
            <display value="losartan 100mg + hydrochlorothiazide 12.5mg"/>
          </coding>
          <text value="losartan 100mg + hydrochlorothiazide 12.5mg"/>
        </medicationCodeableConcept>
        <subject>
          <reference value="Patient/46379"/>
        </subject>
        <dosage>
          <text value="once daily"/>
          <timing>
            <repeat>
              <frequency value="1"/>
              <period value="1"/>
              <periodUnit value="d"/>
            </repeat>
          </timing>
        </dosage>
      </MedicationStatement>
    </resource>
    <search>
      <mode value="match"/>
    </search>
  </entry>
  <entry>
    <fullUrl value="http://hapi.fhir.org/baseR4/MedicationStatement/46451"/>
    <resource>
      <MedicationStatement>
        <id value="46451"/>
        <meta>
          <versionId value="1"/>
          <lastUpdated value="2019-10-14T03:33:31.429+00:00"/>
          <source value="#68ad60f8a1fbb2d6"/>
        </meta>
        <status value="active"/>
        <medicationCodeableConcept>
          <coding>
            <system value="http://snomed.info/ct"/>
            <code value="321323009"/>
            <display value="buspirone 5mg"/>
          </coding>
        </medicationCodeableConcept>
        <subject>
          <reference value="Patient/46379"/>
        </subject>
        <dosage>
          <text value="3 times daily"/>
          <timing>
            <repeat>
              <frequency value="3"/>
              <period value="1"/>
              <periodUnit value="d"/>
            </repeat>
          </timing>
        </dosage>
      </MedicationStatement>
    </resource>
    <search>
      <mode value="match"/>
    </search>
  </entry>
  <entry>
    <fullUrl value="http://hapi.fhir.org/baseR4/MedicationStatement/46440"/>
    <resource>
      <MedicationStatement>
        <id value="46440"/>
        <meta>
          <versionId value="1"/>
          <lastUpdated value="2019-10-14T03:33:31.429+00:00"/>
          <source value="#68ad60f8a1fbb2d6"/>
        </meta>
        <text>
          <status value="generated"/>
          <div>insulin glargine 100units/mL 28 units nocte</div>
        </text>
        <status value="active"/>
        <medicationCodeableConcept>
          <coding>
            <system value="http://snomed.info/ct"/>
            <code value="400847007"/>
            <display value="insulin glargine 100units/mL injection"/>
          </coding>
          <text value="insulin glargine 100units/mL injection"/>
        </medicationCodeableConcept>
        <subject>
          <reference value="Patient/46379"/>
        </subject>
        <dosage>
          <text value="28 units before bed"/>
          <timing>
            <repeat>
              <frequency value="1"/>
              <period value="1"/>
              <periodUnit value="d"/>
            </repeat>
          </timing>
        </dosage>
      </MedicationStatement>
    </resource>
    <search>
      <mode value="match"/>
    </search>
  </entry>
  <entry>
    <fullUrl value="http://hapi.fhir.org/baseR4/MedicationStatement/46443"/>
    <resource>
      <MedicationStatement>
        <id value="46443"/>
        <meta>
          <versionId value="1"/>
          <lastUpdated value="2019-10-14T03:33:31.429+00:00"/>
          <source value="#68ad60f8a1fbb2d6"/>
        </meta>
        <text>
          <status value="generated"/>
          <div>naproxen 500mg twice daily</div>
        </text>
        <status value="active"/>
        <medicationCodeableConcept>
          <coding>
            <system value="http://snomed.info/ct"/>
            <code value="329839005"/>
            <display value="naproxen 500mg e/c tablet"/>
          </coding>
          <text value="naproxen 500mg e/c tablet"/>
        </medicationCodeableConcept>
        <subject>
          <reference value="Patient/46379"/>
        </subject>
        <dosage>
          <text value="1 tab twice daily"/>
          <timing>
            <repeat>
              <frequency value="2"/>
              <period value="1"/>
              <periodUnit value="d"/>
            </repeat>
          </timing>
        </dosage>
      </MedicationStatement>
    </resource>
    <search>
      <mode value="match"/>
    </search>
  </entry>
  <entry>
    <fullUrl value="http://hapi.fhir.org/baseR4/MedicationStatement/46442"/>
    <resource>
      <MedicationStatement>
        <id value="46442"/>
        <meta>
          <versionId value="1"/>
          <lastUpdated value="2019-10-14T03:33:31.429+00:00"/>
          <source value="#68ad60f8a1fbb2d6"/>
        </meta>
        <text>
          <status value="generated"/>
          <div>metformin 1000mg twice daily</div>
        </text>
        <status value="active"/>
        <medicationCodeableConcept>
          <coding>
            <system value="http://snomed.info/ct"/>
            <code value="411533003"/>
            <display value="metformin 1000mg"/>
          </coding>
          <text value="metformin 1000mg"/>
        </medicationCodeableConcept>
        <subject>
          <reference value="Patient/46379"/>
        </subject>
        <dosage>
          <text value="1 tab twice daily"/>
          <timing>
            <repeat>
              <frequency value="2"/>
              <period value="1"/>
              <periodUnit value="d"/>
            </repeat>
          </timing>
        </dosage>
      </MedicationStatement>
    </resource>
    <search>
      <mode value="match"/>
    </search>
  </entry>
  <entry>
    <fullUrl value="http://hapi.fhir.org/baseR4/MedicationStatement/46450"/>
    <resource>
      <MedicationStatement>
        <id value="46450"/>
        <meta>
          <versionId value="1"/>
          <lastUpdated value="2019-10-14T03:33:31.429+00:00"/>
          <source value="#68ad60f8a1fbb2d6"/>
        </meta>
        <text>
          <status value="generated"/>
          <div>isosorbide mononitrate 20mg once daily</div>
        </text>
        <status value="active"/>
        <medicationCodeableConcept>
          <coding>
            <system value="http://snomed.info/ct"/>
            <code value="319134001"/>
            <display value="isosorbide mononitrate 20mg"/>
          </coding>
          <text value="isosorbide mononitrate 20mg"/>
        </medicationCodeableConcept>
        <subject>
          <reference value="Patient/46379"/>
        </subject>
        <dosage>
          <text value="once daily at bedtime"/>
          <timing>
            <repeat>
              <frequency value="1"/>
              <period value="1"/>
              <periodUnit value="d"/>
            </repeat>
          </timing>
        </dosage>
      </MedicationStatement>
    </resource>
    <search>
      <mode value="match"/>
    </search>
  </entry>
  <entry>
    <fullUrl value="http://hapi.fhir.org/baseR4/MedicationStatement/46449"/>
    <resource>
      <MedicationStatement>
        <id value="46449"/>
        <meta>
          <versionId value="1"/>
          <lastUpdated value="2019-10-14T03:33:31.429+00:00"/>
          <source value="#68ad60f8a1fbb2d6"/>
        </meta>
        <text>
          <status value="generated"/>
          <div>lisinopril 20mg mane</div>
        </text>
        <status value="active"/>
        <medicationCodeableConcept>
          <coding>
            <system value="http://snomed.info/ct"/>
            <code value="318860005"/>
            <display value="lisinopril 20mg"/>
          </coding>
          <text value="lisinopril 20mg"/>
        </medicationCodeableConcept>
        <subject>
          <reference value="Patient/46379"/>
        </subject>
        <dosage>
          <text value="once daily"/>
          <timing>
            <repeat>
              <frequency value="1"/>
              <period value="1"/>
              <periodUnit value="d"/>
            </repeat>
          </timing>
        </dosage>
      </MedicationStatement>
    </resource>
    <search>
      <mode value="match"/>
    </search>
  </entry>
  <entry>
    <fullUrl value="http://hapi.fhir.org/baseR4/MedicationStatement/46438"/>
    <resource>
      <MedicationStatement>
        <id value="46438"/>
        <meta>
          <versionId value="1"/>
          <lastUpdated value="2019-10-14T03:33:31.429+00:00"/>
          <source value="#68ad60f8a1fbb2d6"/>
        </meta>
        <text>
          <status value="generated"/>
          <div>citalopram 20 mg once daily</div>
        </text>
        <status value="active"/>
        <medicationCodeableConcept>
          <coding>
            <system value="http://snomed.info/ct"/>
            <code value="321987003"/>
            <display value="citalopram 20 mg"/>
          </coding>
          <text value="citalopram 20 mg"/>
        </medicationCodeableConcept>
        <subject>
          <reference value="Patient/46379"/>
        </subject>
        <dosage>
          <text value="once daily"/>
          <timing>
            <repeat>
              <frequency value="1"/>
              <period value="1"/>
              <periodUnit value="d"/>
            </repeat>
          </timing>
        </dosage>
      </MedicationStatement>
    </resource>
    <search>
      <mode value="match"/>
    </search>
  </entry>
  <entry>
    <fullUrl value="http://hapi.fhir.org/baseR4/MedicationStatement/46448"/>
    <resource>
      <MedicationStatement>
        <id value="46448"/>
        <meta>
          <versionId value="1"/>
          <lastUpdated value="2019-10-14T03:33:31.429+00:00"/>
          <source value="#68ad60f8a1fbb2d6"/>
        </meta>
        <text>
          <status value="generated"/>
          <div>zolpidem 5mg sublingual tablet, 1 nocte</div>
        </text>
        <status value="active"/>
        <medicationCodeableConcept>
          <coding>
            <system value="http://snomed.info/ct"/>
            <code value="442160008"/>
            <display value="zolpidem 5mg sublingual tablet"/>
          </coding>
          <text value="zolpidem 5mg sublingual tablet"/>
        </medicationCodeableConcept>
        <subject>
          <reference value="Patient/46379"/>
        </subject>
        <dosage>
          <text value="1 tab before bed"/>
          <timing>
            <repeat>
              <frequency value="1"/>
              <period value="1"/>
              <periodUnit value="d"/>
            </repeat>
          </timing>
        </dosage>
      </MedicationStatement>
    </resource>
    <search>
      <mode value="match"/>
    </search>
  </entry>
  <entry>
    <fullUrl value="http://hapi.fhir.org/baseR4/Patient/39089"/>
    <resource>
      <Patient>
        <id value="39089"/>
        <meta>
          <versionId value="1"/>
          <lastUpdated value="2019-10-01T10:53:20.578+00:00"/>
          <source value="#65be93fc3146e3e8"/>
        </meta>
        <text>
          <status value="generated"/>
          <div>
            <div class="hapiHeaderText">FN3062 MN3062 
                     <b>LN3062 </b>
                  </div>
            <table class="hapiPropertyTable">
              <tbody>
                <tr>
                  <td>Identifier</td>
                  <td>shwetha1</td>
                </tr>
                <tr>
                  <td>Address</td>
                  <td>
                    <span>Street comp1 comp2 </span>
                    <br/>
                    <span>AddLine2 </span>
                    <br/>
                    <span>Seattle </span>
                    <span>WA </span>
                    <span>USA </span>
                  </td>
                </tr>
                <tr>
                  <td>Date of birth</td>
                  <td>
                    <span>10 October 2001</span>
                  </td>
                </tr>
              </tbody>
            </table>
          </div>
        </text>
        <identifier>
          <use value="usual"/>
          <type>
            <coding>
              <system value="http://terminology.hl7.org/CodeSystem/v2-0203"/>
              <code value="MR"/>
              <display value="Medical record number"/>
            </coding>
          </type>
          <system value="http://hl7.org/fhir/identifier-type"/>
          <value value="shwetha1"/>
        </identifier>
        <identifier>
          <use value="official"/>
          <type>
            <coding>
              <system value="http://terminology.hl7.org/CodeSystem/v2-0203"/>
              <code value="PLAC"/>
              <display value="Placer Identifier"/>
            </coding>
          </type>
          <system value="http://hl7.org/fhir/identifier-type"/>
          <value value="23062"/>
        </identifier>
        <identifier>
          <use value="official"/>
          <type>
            <coding>
              <system value="http://terminology.hl7.org/CodeSystem/v2-0203"/>
              <code value="PRN"/>
              <display value="Provider number"/>
            </coding>
          </type>
          <system value="http://hl7.org/fhir/sid/us-ssn"/>
          <value value="111222333"/>
        </identifier>
        <identifier>
          <use value="secondary"/>
          <type>
            <coding>
              <system value="http://terminology.hl7.org/CodeSystem/v2-0203"/>
              <code value="SNO"/>
              <display value="Serial Number"/>
            </coding>
          </type>
          <system value="http://hl7.org/fhir/identifier-type"/>
          <value value="2333"/>
        </identifier>
        <identifier>
          <use value="official"/>
          <type>
            <coding>
              <system value="http://terminology.hl7.org/CodeSystem/v2-0203"/>
              <code value="FILL"/>
              <display value="Filler Identifier"/>
            </coding>
          </type>
          <system value="https://radboud.nl/id"/>
          <value value="11111111111"/>
        </identifier>
        <identifier>
          <use value="official"/>
          <type>
            <coding>
              <system value="http://terminology.hl7.org/CodeSystem/v2-0203"/>
              <code value="DL"/>
              <display value="Driver's license number"/>
            </coding>
          </type>
          <system value="https://radboud.nl/identifiers/PatientIdentifier"/>
          <value value="33333333333"/>
        </identifier>
        <name>
          <use value="usual"/>
          <family value="LN3062"/>
          <given value="FN3062"/>
          <given value="MN3062"/>
        </name>
        <name>
          <use value="usual"/>
          <family value="Test"/>
          <given value="Test"/>
        </name>
        <telecom>
          <system value="phone"/>
          <value value="123-456-1111"/>
          <use value="home"/>
        </telecom>
        <telecom>
          <system value="phone"/>
          <value value="098-765-1111"/>
          <use value="work"/>
        </telecom>
        <telecom>
          <system value="email"/>
          <use value="home"/>
        </telecom>
        <telecom>
          <system value="email"/>
          <use value="work"/>
        </telecom>
        <gender value="male"/>
        <birthDate value="2001-10-10"/>
        <deceasedDateTime value="2010-11-11T11:12:14.000+05:30"/>
        <address>
          <use value="home"/>
          <line value="Street comp1 comp2"/>
          <line value="AddLine2"/>
          <city value="Seattle"/>
          <state value="WA"/>
          <postalCode value="98052"/>
          <country value="USA"/>
        </address>
        <maritalStatus>
          <coding>
            <system value="http://terminology.hl7.org/CodeSystem/v3-MaritalStatus"/>
            <code value="M"/>
            <display value="Married"/>
          </coding>
        </maritalStatus>
        <multipleBirthInteger value="2"/>
        <contact>
          <relationship>
            <coding>
              <system value="http://terminology.hl7.org/CodeSystem/v2-0131"/>
              <code value="N"/>
              <display value="Next-of-Kin"/>
            </coding>
          </relationship>
          <name>
            <family value="Jones"/>
            <given value="Sally"/>
            <given value="Andy"/>
          </name>
          <telecom>
            <system value="phone"/>
            <value value="123-456-1111"/>
            <use value="home"/>
          </telecom>
          <telecom>
            <system value="phone"/>
            <value value="321-654-2222"/>
            <use value="work"/>
          </telecom>
          <address>
            <use value="home"/>
            <line value="Street comp1 comp2"/>
            <line value="AddLine2"/>
            <city value="Seattle"/>
            <state value="WA"/>
            <postalCode value="98052"/>
            <country value="USA"/>
          </address>
          <gender value="female"/>
          <organization>
            <reference value="Organization/185"/>
          </organization>
        </contact>
        <communication>
          <language>
            <coding>
              <system value="urn:ietf:bcp:47"/>
              <code value="en"/>
              <display value="English"/>
            </coding>
          </language>
        </communication>
        <managingOrganization>
          <reference value="Organization/185"/>
        </managingOrganization>
      </Patient>
    </resource>
    <search>
      <mode value="include"/>
    </search>
  </entry>
  <entry>
    <fullUrl value="http://hapi.fhir.org/baseR4/Patient/45657"/>
    <resource>
      <Patient>
        <id value="45657"/>
        <meta>
          <versionId value="2"/>
          <lastUpdated value="2020-01-28T10:59:09.322+00:00"/>
          <source value="#35lfo9hGpqxnb9bC"/>
        </meta>
        <text>
          <status value="generated"/>
          <div>Madeleine Morris</div>
        </text>
        <name>
          <use value="official"/>
          <text value="Madeleine Morris"/>
          <family value="Morris"/>
          <given value="Madeleine"/>
        </name>
        <gender value="male"/>
        <birthDate value="1962-10-11"/>
        <managingOrganization>
          <reference value="Organization/358"/>
        </managingOrganization>
      </Patient>
    </resource>
    <search>
      <mode value="include"/>
    </search>
  </entry>
  <entry>
    <fullUrl value="http://hapi.fhir.org/baseR4/Patient/46379"/>
    <resource>
      <Patient>
        <id value="46379"/>
        <meta>
          <versionId value="1"/>
          <lastUpdated value="2019-10-14T03:33:27.185+00:00"/>
          <source value="#150cf19d4ab5354b"/>
        </meta>
        <text>
          <status value="generated"/>
          <div>Isaac Hughes</div>
        </text>
        <identifier>
          <system value="http://clinfhir.com/fhir/NamingSystem/identifier"/>
          <value value="13"/>
        </identifier>
        <name>
          <use value="official"/>
          <text value="Isaac Hughes"/>
          <family value="Hughes"/>
          <given value="Isaac"/>
        </name>
        <gender value="male"/>
        <birthDate value="2019-10-13"/>
      </Patient>
    </resource>
    <search>
      <mode value="include"/>
    </search>
  </entry>
  <entry>
    <fullUrl value="http://hapi.fhir.org/baseR4/Encounter/46460"/>
    <resource>
      <Encounter>
        <id value="46460"/>
        <meta>
          <versionId value="1"/>
          <lastUpdated value="2019-10-14T03:50:32.049+00:00"/>
          <source value="#89f8c96ad24b0ce5"/>
        </meta>
        <identifier>
          <use value="official"/>
          <type>
            <coding>
              <system value="http://terminology.hl7.org/CodeSystem/v2-0203"/>
              <code value="MR"/>
              <display value="Medical record number"/>
            </coding>
          </type>
          <value value="12345777"/>
        </identifier>
        <status value="finished"/>
        <class>
          <code value="inpatient"/>
        </class>
        <priority>
          <coding>
            <system value="http://terminology.hl7.org/CodeSystem/v3-ActPriority"/>
            <code value="EL"/>
            <display value="elective"/>
          </coding>
        </priority>
        <subject>
          <reference value="Patient/39089"/>
          <display value="LN3062 FN3062 MN3062"/>
        </subject>
        <participant>
          <individual>
            <reference value="Practitioner/1472"/>
          </individual>
        </participant>
        <participant>
          <individual>
            <reference value="Practitioner/1473"/>
          </individual>
        </participant>
        <participant>
          <individual>
            <reference value="Practitioner/1474"/>
          </individual>
        </participant>
        <participant>
          <individual>
            <reference value="Practitioner/1475"/>
          </individual>
        </participant>
        <period>
          <start value="2010-11-11T11:12:14.456+07:00"/>
          <end value="2010-11-11T11:12:14.456+07:00"/>
        </period>
        <reasonCode>
          <coding>
            <system value="http://snomed.info/sct"/>
            <code value="109006"/>
            <display value="Anxiety disorder of childhood OR adolescence (disorder)"/>
          </coding>
        </reasonCode>
        <hospitalization>
          <preAdmissionIdentifier>
            <use value="official"/>
            <value value="1234"/>
          </preAdmissionIdentifier>
          <admitSource>
            <coding>
              <system value="http://terminology.hl7.org/CodeSystem/admit-source"/>
              <code value="hosp-trans"/>
              <display value="Transferred from other hospital"/>
            </coding>
          </admitSource>
          <reAdmission>
            <coding>
              <userSelected value="true"/>
            </coding>
          </reAdmission>
          <dietPreference>
            <coding>
              <system value="http://terminology.hl7.org/CodeSystem/diet"/>
              <code value="vegetarian"/>
              <display value="Vegetarian"/>
            </coding>
          </dietPreference>
          <dischargeDisposition>
            <coding>
              <system value="http://terminology.hl7.org/CodeSystem/discharge-disposition"/>
              <code value="aadvice"/>
              <display value="Left against advice"/>
            </coding>
          </dischargeDisposition>
        </hospitalization>
        <location>
          <location>
            <reference value="Location/46458"/>
          </location>
          <physicalType>
            <coding>
              <system value="http://terminology.hl7.org/CodeSystem/location-physical-type"/>
              <code value="bu"/>
              <display value="Building"/>
            </coding>
          </physicalType>
        </location>
        <serviceProvider>
          <reference value="Organization/185"/>
        </serviceProvider>
      </Encounter>
    </resource>
    <search>
      <mode value="include"/>
    </search>
  </entry>
  <entry>
    <fullUrl value="http://hapi.fhir.org/baseR4/Encounter/46476"/>
    <resource>
      <Encounter>
        <id value="46476"/>
        <meta>
          <versionId value="1"/>
          <lastUpdated value="2019-10-14T03:51:44.883+00:00"/>
          <source value="#65dbbcd611ea3c47"/>
        </meta>
        <identifier>
          <use value="official"/>
          <type>
            <coding>
              <system value="http://terminology.hl7.org/CodeSystem/v2-0203"/>
              <code value="MR"/>
              <display value="Medical record number"/>
            </coding>
          </type>
          <value value="12345777"/>
        </identifier>
        <status value="finished"/>
        <class>
          <code value="inpatient"/>
        </class>
        <priority>
          <coding>
            <system value="http://terminology.hl7.org/CodeSystem/v3-ActPriority"/>
            <code value="EL"/>
            <display value="elective"/>
          </coding>
        </priority>
        <subject>
          <reference value="Patient/39089"/>
          <display value="LN3062 FN3062 MN3062"/>
        </subject>
        <participant>
          <individual>
            <reference value="Practitioner/1472"/>
          </individual>
        </participant>
        <participant>
          <individual>
            <reference value="Practitioner/1473"/>
          </individual>
        </participant>
        <participant>
          <individual>
            <reference value="Practitioner/1474"/>
          </individual>
        </participant>
        <participant>
          <individual>
            <reference value="Practitioner/1475"/>
          </individual>
        </participant>
        <period>
          <start value="2010-11-11T11:12:14.456+07:00"/>
          <end value="2010-11-11T11:12:14.456+07:00"/>
        </period>
        <reasonCode>
          <coding>
            <system value="http://snomed.info/sct"/>
            <code value="109006"/>
            <display value="Anxiety disorder of childhood OR adolescence (disorder)"/>
          </coding>
        </reasonCode>
        <hospitalization>
          <preAdmissionIdentifier>
            <use value="official"/>
            <value value="1234"/>
          </preAdmissionIdentifier>
          <admitSource>
            <coding>
              <system value="http://terminology.hl7.org/CodeSystem/admit-source"/>
              <code value="hosp-trans"/>
              <display value="Transferred from other hospital"/>
            </coding>
          </admitSource>
          <reAdmission>
            <coding>
              <userSelected value="true"/>
            </coding>
          </reAdmission>
          <dietPreference>
            <coding>
              <system value="http://terminology.hl7.org/CodeSystem/diet"/>
              <code value="vegetarian"/>
              <display value="Vegetarian"/>
            </coding>
          </dietPreference>
          <dischargeDisposition>
            <coding>
              <system value="http://terminology.hl7.org/CodeSystem/discharge-disposition"/>
              <code value="aadvice"/>
              <display value="Left against advice"/>
            </coding>
          </dischargeDisposition>
        </hospitalization>
        <location>
          <location>
            <reference value="Location/46474"/>
          </location>
          <physicalType>
            <coding>
              <system value="http://terminology.hl7.org/CodeSystem/location-physical-type"/>
              <code value="bu"/>
              <display value="Building"/>
            </coding>
          </physicalType>
        </location>
        <serviceProvider>
          <reference value="Organization/185"/>
        </serviceProvider>
      </Encounter>
    </resource>
    <search>
      <mode value="include"/>
    </search>
  </entry>
  <entry>
    <fullUrl value="http://hapi.fhir.org/baseR4/Encounter/46493"/>
    <resource>
      <Encounter>
        <id value="46493"/>
        <meta>
          <versionId value="1"/>
          <lastUpdated value="2019-10-14T04:26:18.233+00:00"/>
          <source value="#181250fe321e94c2"/>
        </meta>
        <identifier>
          <use value="official"/>
          <type>
            <coding>
              <system value="http://terminology.hl7.org/CodeSystem/v2-0203"/>
              <code value="MR"/>
              <display value="Medical record number"/>
            </coding>
          </type>
          <value value="12345777"/>
        </identifier>
        <status value="finished"/>
        <class>
          <code value="inpatient"/>
        </class>
        <priority>
          <coding>
            <system value="http://terminology.hl7.org/CodeSystem/v3-ActPriority"/>
            <code value="EL"/>
            <display value="elective"/>
          </coding>
        </priority>
        <subject>
          <reference value="Patient/39089"/>
          <display value="LN3062 FN3062 MN3062"/>
        </subject>
        <participant>
          <individual>
            <reference value="Practitioner/1472"/>
          </individual>
        </participant>
        <participant>
          <individual>
            <reference value="Practitioner/1473"/>
          </individual>
        </participant>
        <participant>
          <individual>
            <reference value="Practitioner/1474"/>
          </individual>
        </participant>
        <participant>
          <individual>
            <reference value="Practitioner/1475"/>
          </individual>
        </participant>
        <period>
          <start value="2010-11-11T11:12:14.456+07:00"/>
          <end value="2010-11-11T11:12:14.456+07:00"/>
        </period>
        <reasonCode>
          <coding>
            <system value="http://snomed.info/sct"/>
            <code value="109006"/>
            <display value="Anxiety disorder of childhood OR adolescence (disorder)"/>
          </coding>
        </reasonCode>
        <hospitalization>
          <preAdmissionIdentifier>
            <use value="official"/>
            <value value="1234"/>
          </preAdmissionIdentifier>
          <admitSource>
            <coding>
              <system value="http://terminology.hl7.org/CodeSystem/admit-source"/>
              <code value="hosp-trans"/>
              <display value="Transferred from other hospital"/>
            </coding>
          </admitSource>
          <reAdmission>
            <coding>
              <userSelected value="true"/>
            </coding>
          </reAdmission>
          <dietPreference>
            <coding>
              <system value="http://terminology.hl7.org/CodeSystem/diet"/>
              <code value="vegetarian"/>
              <display value="Vegetarian"/>
            </coding>
          </dietPreference>
          <dischargeDisposition>
            <coding>
              <system value="http://terminology.hl7.org/CodeSystem/discharge-disposition"/>
              <code value="aadvice"/>
              <display value="Left against advice"/>
            </coding>
          </dischargeDisposition>
        </hospitalization>
        <location>
          <location>
            <reference value="Location/46491"/>
          </location>
          <physicalType>
            <coding>
              <system value="http://terminology.hl7.org/CodeSystem/location-physical-type"/>
              <code value="bu"/>
              <display value="Building"/>
            </coding>
          </physicalType>
        </location>
        <serviceProvider>
          <reference value="Organization/185"/>
        </serviceProvider>
      </Encounter>
    </resource>
    <search>
      <mode value="include"/>
    </search>
  </entry>
  <entry>
    <fullUrl value="http://hapi.fhir.org/baseR4/Encounter/46509"/>
    <resource>
      <Encounter>
        <id value="46509"/>
        <meta>
          <versionId value="1"/>
          <lastUpdated value="2019-10-14T04:27:13.858+00:00"/>
          <source value="#b91e450a7f25b092"/>
        </meta>
        <identifier>
          <use value="official"/>
          <type>
            <coding>
              <system value="http://terminology.hl7.org/CodeSystem/v2-0203"/>
              <code value="MR"/>
              <display value="Medical record number"/>
            </coding>
          </type>
          <value value="12345777"/>
        </identifier>
        <status value="finished"/>
        <class>
          <code value="inpatient"/>
        </class>
        <priority>
          <coding>
            <system value="http://terminology.hl7.org/CodeSystem/v3-ActPriority"/>
            <code value="EL"/>
            <display value="elective"/>
          </coding>
        </priority>
        <subject>
          <reference value="Patient/39089"/>
          <display value="LN3062 FN3062 MN3062"/>
        </subject>
        <participant>
          <individual>
            <reference value="Practitioner/1472"/>
          </individual>
        </participant>
        <participant>
          <individual>
            <reference value="Practitioner/1473"/>
          </individual>
        </participant>
        <participant>
          <individual>
            <reference value="Practitioner/1474"/>
          </individual>
        </participant>
        <participant>
          <individual>
            <reference value="Practitioner/1475"/>
          </individual>
        </participant>
        <period>
          <start value="2010-11-11T11:12:14.456+07:00"/>
          <end value="2010-11-11T11:12:14.456+07:00"/>
        </period>
        <reasonCode>
          <coding>
            <system value="http://snomed.info/sct"/>
            <code value="109006"/>
            <display value="Anxiety disorder of childhood OR adolescence (disorder)"/>
          </coding>
        </reasonCode>
        <hospitalization>
          <preAdmissionIdentifier>
            <use value="official"/>
            <value value="1234"/>
          </preAdmissionIdentifier>
          <admitSource>
            <coding>
              <system value="http://terminology.hl7.org/CodeSystem/admit-source"/>
              <code value="hosp-trans"/>
              <display value="Transferred from other hospital"/>
            </coding>
          </admitSource>
          <reAdmission>
            <coding>
              <userSelected value="true"/>
            </coding>
          </reAdmission>
          <dietPreference>
            <coding>
              <system value="http://terminology.hl7.org/CodeSystem/diet"/>
              <code value="vegetarian"/>
              <display value="Vegetarian"/>
            </coding>
          </dietPreference>
          <dischargeDisposition>
            <coding>
              <system value="http://terminology.hl7.org/CodeSystem/discharge-disposition"/>
              <code value="aadvice"/>
              <display value="Left against advice"/>
            </coding>
          </dischargeDisposition>
        </hospitalization>
        <location>
          <location>
            <reference value="Location/46507"/>
          </location>
          <physicalType>
            <coding>
              <system value="http://terminology.hl7.org/CodeSystem/location-physical-type"/>
              <code value="bu"/>
              <display value="Building"/>
            </coding>
          </physicalType>
        </location>
        <serviceProvider>
          <reference value="Organization/185"/>
        </serviceProvider>
      </Encounter>
    </resource>
    <search>
      <mode value="include"/>
    </search>
  </entry>
  <entry>
    <fullUrl value="http://hapi.fhir.org/baseR4/Encounter/46525"/>
    <resource>
      <Encounter>
        <id value="46525"/>
        <meta>
          <versionId value="1"/>
          <lastUpdated value="2019-10-14T04:28:27.949+00:00"/>
          <source value="#2b2b9a200c8cb809"/>
        </meta>
        <identifier>
          <use value="official"/>
          <type>
            <coding>
              <system value="http://terminology.hl7.org/CodeSystem/v2-0203"/>
              <code value="MR"/>
              <display value="Medical record number"/>
            </coding>
          </type>
          <value value="12345777"/>
        </identifier>
        <status value="finished"/>
        <class>
          <code value="inpatient"/>
        </class>
        <priority>
          <coding>
            <system value="http://terminology.hl7.org/CodeSystem/v3-ActPriority"/>
            <code value="EL"/>
            <display value="elective"/>
          </coding>
        </priority>
        <subject>
          <reference value="Patient/39089"/>
          <display value="LN3062 FN3062 MN3062"/>
        </subject>
        <participant>
          <individual>
            <reference value="Practitioner/1472"/>
          </individual>
        </participant>
        <participant>
          <individual>
            <reference value="Practitioner/1473"/>
          </individual>
        </participant>
        <participant>
          <individual>
            <reference value="Practitioner/1474"/>
          </individual>
        </participant>
        <participant>
          <individual>
            <reference value="Practitioner/1475"/>
          </individual>
        </participant>
        <period>
          <start value="2010-11-11T11:12:14.456+07:00"/>
          <end value="2010-11-11T11:12:14.456+07:00"/>
        </period>
        <reasonCode>
          <coding>
            <system value="http://snomed.info/sct"/>
            <code value="109006"/>
            <display value="Anxiety disorder of childhood OR adolescence (disorder)"/>
          </coding>
        </reasonCode>
        <hospitalization>
          <preAdmissionIdentifier>
            <use value="official"/>
            <value value="1234"/>
          </preAdmissionIdentifier>
          <admitSource>
            <coding>
              <system value="http://terminology.hl7.org/CodeSystem/admit-source"/>
              <code value="hosp-trans"/>
              <display value="Transferred from other hospital"/>
            </coding>
          </admitSource>
          <reAdmission>
            <coding>
              <userSelected value="true"/>
            </coding>
          </reAdmission>
          <dietPreference>
            <coding>
              <system value="http://terminology.hl7.org/CodeSystem/diet"/>
              <code value="vegetarian"/>
              <display value="Vegetarian"/>
            </coding>
          </dietPreference>
          <dischargeDisposition>
            <coding>
              <system value="http://terminology.hl7.org/CodeSystem/discharge-disposition"/>
              <code value="aadvice"/>
              <display value="Left against advice"/>
            </coding>
          </dischargeDisposition>
        </hospitalization>
        <location>
          <location>
            <reference value="Location/46523"/>
          </location>
          <physicalType>
            <coding>
              <system value="http://terminology.hl7.org/CodeSystem/location-physical-type"/>
              <code value="bu"/>
              <display value="Building"/>
            </coding>
          </physicalType>
        </location>
        <serviceProvider>
          <reference value="Organization/185"/>
        </serviceProvider>
      </Encounter>
    </resource>
    <search>
      <mode value="include"/>
    </search>
  </entry>
  <entry>
    <fullUrl value="http://hapi.fhir.org/baseR4/Encounter/46541"/>
    <resource>
      <Encounter>
        <id value="46541"/>
        <meta>
          <versionId value="1"/>
          <lastUpdated value="2019-10-14T04:29:11.847+00:00"/>
          <source value="#27bc1b1189b165d2"/>
        </meta>
        <identifier>
          <use value="official"/>
          <type>
            <coding>
              <system value="http://terminology.hl7.org/CodeSystem/v2-0203"/>
              <code value="MR"/>
              <display value="Medical record number"/>
            </coding>
          </type>
          <value value="12345777"/>
        </identifier>
        <status value="finished"/>
        <class>
          <code value="inpatient"/>
        </class>
        <priority>
          <coding>
            <system value="http://terminology.hl7.org/CodeSystem/v3-ActPriority"/>
            <code value="EL"/>
            <display value="elective"/>
          </coding>
        </priority>
        <subject>
          <reference value="Patient/39089"/>
          <display value="LN3062 FN3062 MN3062"/>
        </subject>
        <participant>
          <individual>
            <reference value="Practitioner/1472"/>
          </individual>
        </participant>
        <participant>
          <individual>
            <reference value="Practitioner/1473"/>
          </individual>
        </participant>
        <participant>
          <individual>
            <reference value="Practitioner/1474"/>
          </individual>
        </participant>
        <participant>
          <individual>
            <reference value="Practitioner/1475"/>
          </individual>
        </participant>
        <period>
          <start value="2010-11-11T11:12:14.456+07:00"/>
          <end value="2010-11-11T11:12:14.456+07:00"/>
        </period>
        <reasonCode>
          <coding>
            <system value="http://snomed.info/sct"/>
            <code value="109006"/>
            <display value="Anxiety disorder of childhood OR adolescence (disorder)"/>
          </coding>
        </reasonCode>
        <hospitalization>
          <preAdmissionIdentifier>
            <use value="official"/>
            <value value="1234"/>
          </preAdmissionIdentifier>
          <admitSource>
            <coding>
              <system value="http://terminology.hl7.org/CodeSystem/admit-source"/>
              <code value="hosp-trans"/>
              <display value="Transferred from other hospital"/>
            </coding>
          </admitSource>
          <reAdmission>
            <coding>
              <userSelected value="true"/>
            </coding>
          </reAdmission>
          <dietPreference>
            <coding>
              <system value="http://terminology.hl7.org/CodeSystem/diet"/>
              <code value="vegetarian"/>
              <display value="Vegetarian"/>
            </coding>
          </dietPreference>
          <dischargeDisposition>
            <coding>
              <system value="http://terminology.hl7.org/CodeSystem/discharge-disposition"/>
              <code value="aadvice"/>
              <display value="Left against advice"/>
            </coding>
          </dischargeDisposition>
        </hospitalization>
        <location>
          <location>
            <reference value="Location/46539"/>
          </location>
          <physicalType>
            <coding>
              <system value="http://terminology.hl7.org/CodeSystem/location-physical-type"/>
              <code value="bu"/>
              <display value="Building"/>
            </coding>
          </physicalType>
        </location>
        <serviceProvider>
          <reference value="Organization/185"/>
        </serviceProvider>
      </Encounter>
    </resource>
    <search>
      <mode value="include"/>
    </search>
  </entry>
  <entry>
    <fullUrl value="http://hapi.fhir.org/baseR4/Encounter/46557"/>
    <resource>
      <Encounter>
        <id value="46557"/>
        <meta>
          <versionId value="1"/>
          <lastUpdated value="2019-10-14T04:32:08.814+00:00"/>
          <source value="#30492ec362f84739"/>
        </meta>
        <identifier>
          <use value="official"/>
          <type>
            <coding>
              <system value="http://terminology.hl7.org/CodeSystem/v2-0203"/>
              <code value="MR"/>
              <display value="Medical record number"/>
            </coding>
          </type>
          <value value="12345777"/>
        </identifier>
        <status value="finished"/>
        <class>
          <code value="inpatient"/>
        </class>
        <priority>
          <coding>
            <system value="http://terminology.hl7.org/CodeSystem/v3-ActPriority"/>
            <code value="EL"/>
            <display value="elective"/>
          </coding>
        </priority>
        <subject>
          <reference value="Patient/39089"/>
          <display value="LN3062 FN3062 MN3062"/>
        </subject>
        <participant>
          <individual>
            <reference value="Practitioner/1472"/>
          </individual>
        </participant>
        <participant>
          <individual>
            <reference value="Practitioner/1473"/>
          </individual>
        </participant>
        <participant>
          <individual>
            <reference value="Practitioner/1474"/>
          </individual>
        </participant>
        <participant>
          <individual>
            <reference value="Practitioner/1475"/>
          </individual>
        </participant>
        <period>
          <start value="2010-11-11T11:12:14.456+07:00"/>
          <end value="2010-11-11T11:12:14.456+07:00"/>
        </period>
        <reasonCode>
          <coding>
            <system value="http://snomed.info/sct"/>
            <code value="109006"/>
            <display value="Anxiety disorder of childhood OR adolescence (disorder)"/>
          </coding>
        </reasonCode>
        <hospitalization>
          <preAdmissionIdentifier>
            <use value="official"/>
            <value value="1234"/>
          </preAdmissionIdentifier>
          <admitSource>
            <coding>
              <system value="http://terminology.hl7.org/CodeSystem/admit-source"/>
              <code value="hosp-trans"/>
              <display value="Transferred from other hospital"/>
            </coding>
          </admitSource>
          <reAdmission>
            <coding>
              <userSelected value="true"/>
            </coding>
          </reAdmission>
          <dietPreference>
            <coding>
              <system value="http://terminology.hl7.org/CodeSystem/diet"/>
              <code value="vegetarian"/>
              <display value="Vegetarian"/>
            </coding>
          </dietPreference>
          <dischargeDisposition>
            <coding>
              <system value="http://terminology.hl7.org/CodeSystem/discharge-disposition"/>
              <code value="aadvice"/>
              <display value="Left against advice"/>
            </coding>
          </dischargeDisposition>
        </hospitalization>
        <location>
          <location>
            <reference value="Location/46555"/>
          </location>
          <physicalType>
            <coding>
              <system value="http://terminology.hl7.org/CodeSystem/location-physical-type"/>
              <code value="bu"/>
              <display value="Building"/>
            </coding>
          </physicalType>
        </location>
        <serviceProvider>
          <reference value="Organization/185"/>
        </serviceProvider>
      </Encounter>
    </resource>
    <search>
      <mode value="include"/>
    </search>
  </entry>
  <entry>
    <fullUrl value="http://hapi.fhir.org/baseR4/Encounter/46573"/>
    <resource>
      <Encounter>
        <id value="46573"/>
        <meta>
          <versionId value="1"/>
          <lastUpdated value="2019-10-14T04:40:02.440+00:00"/>
          <source value="#d1cfa96968b44eba"/>
        </meta>
        <identifier>
          <use value="official"/>
          <type>
            <coding>
              <system value="http://terminology.hl7.org/CodeSystem/v2-0203"/>
              <code value="MR"/>
              <display value="Medical record number"/>
            </coding>
          </type>
          <value value="12345777"/>
        </identifier>
        <status value="finished"/>
        <class>
          <code value="inpatient"/>
        </class>
        <priority>
          <coding>
            <system value="http://terminology.hl7.org/CodeSystem/v3-ActPriority"/>
            <code value="EL"/>
            <display value="elective"/>
          </coding>
        </priority>
        <subject>
          <reference value="Patient/39089"/>
          <display value="LN3062 FN3062 MN3062"/>
        </subject>
        <participant>
          <individual>
            <reference value="Practitioner/1472"/>
          </individual>
        </participant>
        <participant>
          <individual>
            <reference value="Practitioner/1473"/>
          </individual>
        </participant>
        <participant>
          <individual>
            <reference value="Practitioner/1474"/>
          </individual>
        </participant>
        <participant>
          <individual>
            <reference value="Practitioner/1475"/>
          </individual>
        </participant>
        <period>
          <start value="2010-11-11T11:12:14.456+07:00"/>
          <end value="2010-11-11T11:12:14.456+07:00"/>
        </period>
        <reasonCode>
          <coding>
            <system value="http://snomed.info/sct"/>
            <code value="109006"/>
            <display value="Anxiety disorder of childhood OR adolescence (disorder)"/>
          </coding>
        </reasonCode>
        <hospitalization>
          <preAdmissionIdentifier>
            <use value="official"/>
            <value value="1234"/>
          </preAdmissionIdentifier>
          <admitSource>
            <coding>
              <system value="http://terminology.hl7.org/CodeSystem/admit-source"/>
              <code value="hosp-trans"/>
              <display value="Transferred from other hospital"/>
            </coding>
          </admitSource>
          <reAdmission>
            <coding>
              <userSelected value="true"/>
            </coding>
          </reAdmission>
          <dietPreference>
            <coding>
              <system value="http://terminology.hl7.org/CodeSystem/diet"/>
              <code value="vegetarian"/>
              <display value="Vegetarian"/>
            </coding>
          </dietPreference>
          <dischargeDisposition>
            <coding>
              <system value="http://terminology.hl7.org/CodeSystem/discharge-disposition"/>
              <code value="aadvice"/>
              <display value="Left against advice"/>
            </coding>
          </dischargeDisposition>
        </hospitalization>
        <location>
          <location>
            <reference value="Location/46571"/>
          </location>
          <physicalType>
            <coding>
              <system value="http://terminology.hl7.org/CodeSystem/location-physical-type"/>
              <code value="bu"/>
              <display value="Building"/>
            </coding>
          </physicalType>
        </location>
        <serviceProvider>
          <reference value="Organization/185"/>
        </serviceProvider>
      </Encounter>
    </resource>
    <search>
      <mode value="include"/>
    </search>
  </entry>
  <entry>
    <fullUrl value="http://hapi.fhir.org/baseR4/Encounter/46589"/>
    <resource>
      <Encounter>
        <id value="46589"/>
        <meta>
          <versionId value="1"/>
          <lastUpdated value="2019-10-14T04:43:41.324+00:00"/>
          <source value="#3eddf84a0dc94947"/>
        </meta>
        <identifier>
          <use value="official"/>
          <type>
            <coding>
              <system value="http://terminology.hl7.org/CodeSystem/v2-0203"/>
              <code value="MR"/>
              <display value="Medical record number"/>
            </coding>
          </type>
          <value value="12345777"/>
        </identifier>
        <status value="finished"/>
        <class>
          <code value="inpatient"/>
        </class>
        <priority>
          <coding>
            <system value="http://terminology.hl7.org/CodeSystem/v3-ActPriority"/>
            <code value="EL"/>
            <display value="elective"/>
          </coding>
        </priority>
        <subject>
          <reference value="Patient/39089"/>
          <display value="LN3062 FN3062 MN3062"/>
        </subject>
        <participant>
          <individual>
            <reference value="Practitioner/1472"/>
          </individual>
        </participant>
        <participant>
          <individual>
            <reference value="Practitioner/1473"/>
          </individual>
        </participant>
        <participant>
          <individual>
            <reference value="Practitioner/1474"/>
          </individual>
        </participant>
        <participant>
          <individual>
            <reference value="Practitioner/1475"/>
          </individual>
        </participant>
        <period>
          <start value="2010-11-11T11:12:14.456+07:00"/>
          <end value="2010-11-11T11:12:14.456+07:00"/>
        </period>
        <reasonCode>
          <coding>
            <system value="http://snomed.info/sct"/>
            <code value="109006"/>
            <display value="Anxiety disorder of childhood OR adolescence (disorder)"/>
          </coding>
        </reasonCode>
        <hospitalization>
          <preAdmissionIdentifier>
            <use value="official"/>
            <value value="1234"/>
          </preAdmissionIdentifier>
          <admitSource>
            <coding>
              <system value="http://terminology.hl7.org/CodeSystem/admit-source"/>
              <code value="hosp-trans"/>
              <display value="Transferred from other hospital"/>
            </coding>
          </admitSource>
          <reAdmission>
            <coding>
              <userSelected value="true"/>
            </coding>
          </reAdmission>
          <dietPreference>
            <coding>
              <system value="http://terminology.hl7.org/CodeSystem/diet"/>
              <code value="vegetarian"/>
              <display value="Vegetarian"/>
            </coding>
          </dietPreference>
          <dischargeDisposition>
            <coding>
              <system value="http://terminology.hl7.org/CodeSystem/discharge-disposition"/>
              <code value="aadvice"/>
              <display value="Left against advice"/>
            </coding>
          </dischargeDisposition>
        </hospitalization>
        <location>
          <location>
            <reference value="Location/46587"/>
          </location>
          <physicalType>
            <coding>
              <system value="http://terminology.hl7.org/CodeSystem/location-physical-type"/>
              <code value="bu"/>
              <display value="Building"/>
            </coding>
          </physicalType>
        </location>
        <serviceProvider>
          <reference value="Organization/185"/>
        </serviceProvider>
      </Encounter>
    </resource>
    <search>
      <mode value="include"/>
    </search>
  </entry>
</Bundle>
