<?xml version="1.0" encoding="UTF-8"?>
<Bundle>
  <id value="15792624-5f41-4e1b-89cd-99bb6d64f628"/>
  <meta>
    <lastUpdated value="2020-05-31T19:18:49.635+00:00"/>
  </meta>
  <type value="searchset"/>
  <total value="5700"/>
  <link>
    <relation value="self"/>
    <url value="http://hapi.fhir.org/baseR4?_getpages=15792624-5f41-4e1b-89cd-99bb6d64f628&amp;_getpagesoffset=5560&amp;_count=20&amp;_format=xml&amp;_pretty=true&amp;_bundletype=searchset"/>
  </link>
  <link>
    <relation value="next"/>
    <url value="http://hapi.fhir.org/baseR4?_getpages=15792624-5f41-4e1b-89cd-99bb6d64f628&amp;_getpagesoffset=5580&amp;_count=20&amp;_format=xml&amp;_pretty=true&amp;_bundletype=searchset"/>
  </link>
  <link>
    <relation value="previous"/>
    <url value="http://hapi.fhir.org/baseR4?_getpages=15792624-5f41-4e1b-89cd-99bb6d64f628&amp;_getpagesoffset=5540&amp;_count=20&amp;_format=xml&amp;_pretty=true&amp;_bundletype=searchset"/>
  </link>
  <entry>
    <fullUrl value="http://hapi.fhir.org/baseR4/MedicationStatement/45639"/>
    <resource>
      <MedicationStatement>
        <id value="45639"/>
        <meta>
          <versionId value="1"/>
          <lastUpdated value="2019-10-11T16:17:42.365+00:00"/>
          <source value="#c4d50cafcf925fe8"/>
        </meta>
        <text>
          <status value="generated"/>
          <div>gabapentin 600mg twice daily</div>
        </text>
        <status value="active"/>
        <medicationCodeableConcept>
          <coding>
            <system value="http://snomed.info/ct"/>
            <code value="323021008"/>
            <display value="gabapentin 600mg"/>
          </coding>
          <text value="gabapentin 600mg"/>
        </medicationCodeableConcept>
        <subject>
          <reference value="Patient/45579"/>
        </subject>
        <dosage>
          <text value="twice daily"/>
          <timing>
            <repeat>
              <frequency value="2"/>
              <period value="1"/>
              <periodUnit value="d"/>
            </repeat>
          </timing>
        </dosage>
      </MedicationStatement>
    </resource>
    <search>
      <mode value="match"/>
    </search>
  </entry>
  <entry>
    <fullUrl value="http://hapi.fhir.org/baseR4/MedicationStatement/45649"/>
    <resource>
      <MedicationStatement>
        <id value="45649"/>
        <meta>
          <versionId value="1"/>
          <lastUpdated value="2019-10-11T16:17:42.365+00:00"/>
          <source value="#c4d50cafcf925fe8"/>
        </meta>
        <text>
          <status value="generated"/>
          <div>lisinopril 20mg mane</div>
        </text>
        <status value="active"/>
        <medicationCodeableConcept>
          <coding>
            <system value="http://snomed.info/ct"/>
            <code value="318860005"/>
            <display value="lisinopril 20mg"/>
          </coding>
          <text value="lisinopril 20mg"/>
        </medicationCodeableConcept>
        <subject>
          <reference value="Patient/45579"/>
        </subject>
        <dosage>
          <text value="once daily"/>
          <timing>
            <repeat>
              <frequency value="1"/>
              <period value="1"/>
              <periodUnit value="d"/>
            </repeat>
          </timing>
        </dosage>
      </MedicationStatement>
    </resource>
    <search>
      <mode value="match"/>
    </search>
  </entry>
  <entry>
    <fullUrl value="http://hapi.fhir.org/baseR4/MedicationStatement/45638"/>
    <resource>
      <MedicationStatement>
        <id value="45638"/>
        <meta>
          <versionId value="1"/>
          <lastUpdated value="2019-10-11T16:17:42.365+00:00"/>
          <source value="#c4d50cafcf925fe8"/>
        </meta>
        <text>
          <status value="generated"/>
          <div>citalopram 20 mg once daily</div>
        </text>
        <status value="active"/>
        <medicationCodeableConcept>
          <coding>
            <system value="http://snomed.info/ct"/>
            <code value="321987003"/>
            <display value="citalopram 20 mg"/>
          </coding>
          <text value="citalopram 20 mg"/>
        </medicationCodeableConcept>
        <subject>
          <reference value="Patient/45579"/>
        </subject>
        <dosage>
          <text value="once daily"/>
          <timing>
            <repeat>
              <frequency value="1"/>
              <period value="1"/>
              <periodUnit value="d"/>
            </repeat>
          </timing>
        </dosage>
      </MedicationStatement>
    </resource>
    <search>
      <mode value="match"/>
    </search>
  </entry>
  <entry>
    <fullUrl value="http://hapi.fhir.org/baseR4/MedicationStatement/45651"/>
    <resource>
      <MedicationStatement>
        <id value="45651"/>
        <meta>
          <versionId value="1"/>
          <lastUpdated value="2019-10-11T16:17:42.365+00:00"/>
          <source value="#c4d50cafcf925fe8"/>
        </meta>
        <status value="active"/>
        <medicationCodeableConcept>
          <coding>
            <system value="http://snomed.info/ct"/>
            <code value="321323009"/>
            <display value="buspirone 5mg"/>
          </coding>
        </medicationCodeableConcept>
        <subject>
          <reference value="Patient/45579"/>
        </subject>
        <dosage>
          <text value="3 times daily"/>
          <timing>
            <repeat>
              <frequency value="3"/>
              <period value="1"/>
              <periodUnit value="d"/>
            </repeat>
          </timing>
        </dosage>
      </MedicationStatement>
    </resource>
    <search>
      <mode value="match"/>
    </search>
  </entry>
  <entry>
    <fullUrl value="http://hapi.fhir.org/baseR4/MedicationStatement/45640"/>
    <resource>
      <MedicationStatement>
        <id value="45640"/>
        <meta>
          <versionId value="1"/>
          <lastUpdated value="2019-10-11T16:17:42.365+00:00"/>
          <source value="#c4d50cafcf925fe8"/>
        </meta>
        <text>
          <status value="generated"/>
          <div>insulin glargine 100units/mL 28 units nocte</div>
        </text>
        <status value="active"/>
        <medicationCodeableConcept>
          <coding>
            <system value="http://snomed.info/ct"/>
            <code value="400847007"/>
            <display value="insulin glargine 100units/mL injection"/>
          </coding>
          <text value="insulin glargine 100units/mL injection"/>
        </medicationCodeableConcept>
        <subject>
          <reference value="Patient/45579"/>
        </subject>
        <dosage>
          <text value="28 units before bed"/>
          <timing>
            <repeat>
              <frequency value="1"/>
              <period value="1"/>
              <periodUnit value="d"/>
            </repeat>
          </timing>
        </dosage>
      </MedicationStatement>
    </resource>
    <search>
      <mode value="match"/>
    </search>
  </entry>
  <entry>
    <fullUrl value="http://hapi.fhir.org/baseR4/MedicationStatement/45650"/>
    <resource>
      <MedicationStatement>
        <id value="45650"/>
        <meta>
          <versionId value="1"/>
          <lastUpdated value="2019-10-11T16:17:42.365+00:00"/>
          <source value="#c4d50cafcf925fe8"/>
        </meta>
        <text>
          <status value="generated"/>
          <div>isosorbide mononitrate 20mg once daily</div>
        </text>
        <status value="active"/>
        <medicationCodeableConcept>
          <coding>
            <system value="http://snomed.info/ct"/>
            <code value="319134001"/>
            <display value="isosorbide mononitrate 20mg"/>
          </coding>
          <text value="isosorbide mononitrate 20mg"/>
        </medicationCodeableConcept>
        <subject>
          <reference value="Patient/45579"/>
        </subject>
        <dosage>
          <text value="once daily at bedtime"/>
          <timing>
            <repeat>
              <frequency value="1"/>
              <period value="1"/>
              <periodUnit value="d"/>
            </repeat>
          </timing>
        </dosage>
      </MedicationStatement>
    </resource>
    <search>
      <mode value="match"/>
    </search>
  </entry>
  <entry>
    <fullUrl value="http://hapi.fhir.org/baseR4/MedicationStatement/45646"/>
    <resource>
      <MedicationStatement>
        <id value="45646"/>
        <meta>
          <versionId value="1"/>
          <lastUpdated value="2019-10-11T16:17:42.365+00:00"/>
          <source value="#c4d50cafcf925fe8"/>
        </meta>
        <text>
          <status value="generated"/>
          <div>simvastatin 40mg once daily</div>
        </text>
        <status value="active"/>
        <medicationCodeableConcept>
          <coding>
            <system value="http://snomed.info/ct"/>
            <code value="429374003"/>
            <display value="simvastatin 40mg"/>
          </coding>
          <text value="simvastatin 40mg"/>
        </medicationCodeableConcept>
        <subject>
          <reference value="Patient/45579"/>
        </subject>
        <dosage>
          <text value="1 tab once daily"/>
          <timing>
            <repeat>
              <frequency value="1"/>
              <period value="1"/>
              <periodUnit value="d"/>
            </repeat>
          </timing>
          <asNeededBoolean value="true"/>
        </dosage>
      </MedicationStatement>
    </resource>
    <search>
      <mode value="match"/>
    </search>
  </entry>
  <entry>
    <fullUrl value="http://hapi.fhir.org/baseR4/MedicationStatement/45635"/>
    <resource>
      <MedicationStatement>
        <id value="45635"/>
        <meta>
          <versionId value="1"/>
          <lastUpdated value="2019-10-11T16:17:42.365+00:00"/>
          <source value="#c4d50cafcf925fe8"/>
        </meta>
        <text>
          <status value="generated"/>
          <div>beclomethasone 2 puffs twice daily</div>
        </text>
        <status value="active"/>
        <medicationCodeableConcept>
          <coding>
            <system value="http://snomed.info/ct"/>
            <code value="376733004"/>
            <display value="beclomethasone dipropionate 40mcg aerosol"/>
          </coding>
          <text value="beclomethasone dipropionate 40mcg aerosol"/>
        </medicationCodeableConcept>
        <subject>
          <reference value="Patient/45579"/>
        </subject>
        <dosage>
          <text value="2 puffs twice daily"/>
          <timing>
            <repeat>
              <frequency value="2"/>
              <period value="1"/>
              <periodUnit value="d"/>
            </repeat>
          </timing>
          <asNeededBoolean value="false"/>
        </dosage>
      </MedicationStatement>
    </resource>
    <search>
      <mode value="match"/>
    </search>
  </entry>
  <entry>
    <fullUrl value="http://hapi.fhir.org/baseR4/MedicationStatement/45645"/>
    <resource>
      <MedicationStatement>
        <id value="45645"/>
        <meta>
          <versionId value="1"/>
          <lastUpdated value="2019-10-11T16:17:42.365+00:00"/>
          <source value="#c4d50cafcf925fe8"/>
        </meta>
        <text>
          <status value="generated"/>
          <div>prednisone 20mg 2 tabs/day</div>
        </text>
        <status value="active"/>
        <medicationCodeableConcept>
          <coding>
            <system value="http://snomed.info/ct"/>
            <code value="325456002"/>
            <display value="prednisone 20mg"/>
          </coding>
          <text value="prednisone 20mg"/>
        </medicationCodeableConcept>
        <subject>
          <reference value="Patient/45579"/>
        </subject>
        <dosage>
          <text value="2 tabs once daily"/>
          <timing>
            <repeat>
              <frequency value="1"/>
              <period value="1"/>
              <periodUnit value="d"/>
            </repeat>
          </timing>
          <asNeededBoolean value="true"/>
        </dosage>
      </MedicationStatement>
    </resource>
    <search>
      <mode value="match"/>
    </search>
  </entry>
  <entry>
    <fullUrl value="http://hapi.fhir.org/baseR4/MedicationStatement/45634"/>
    <resource>
      <MedicationStatement>
        <id value="45634"/>
        <meta>
          <versionId value="1"/>
          <lastUpdated value="2019-10-11T16:17:42.365+00:00"/>
          <source value="#c4d50cafcf925fe8"/>
        </meta>
        <text>
          <status value="generated"/>
          <div>aspirin 81mg once daily</div>
        </text>
        <contained>
          <Medication>
            <id value="med1"/>
            <code>
              <coding>
                <system value="http://snomed.info/ct"/>
                <code value="370167008 "/>
                <display value="aspirin 81mg e/c tablet "/>
              </coding>
              <text value="aspirin 81mg e/c tablet"/>
            </code>
          </Medication>
        </contained>
        <status value="active"/>
        <medicationReference>
          <reference value="#med1"/>
          <display value="aspirin 81mg e/c tablet"/>
        </medicationReference>
        <subject>
          <reference value="Patient/45579"/>
        </subject>
        <dosage>
          <text value="once daily"/>
          <timing>
            <repeat>
              <frequency value="1"/>
              <period value="1"/>
              <periodUnit value="d"/>
            </repeat>
          </timing>
        </dosage>
      </MedicationStatement>
    </resource>
    <search>
      <mode value="match"/>
    </search>
  </entry>
  <entry>
    <fullUrl value="http://hapi.fhir.org/baseR4/MedicationStatement/45648"/>
    <resource>
      <MedicationStatement>
        <id value="45648"/>
        <meta>
          <versionId value="1"/>
          <lastUpdated value="2019-10-11T16:17:42.365+00:00"/>
          <source value="#c4d50cafcf925fe8"/>
        </meta>
        <text>
          <status value="generated"/>
          <div>zolpidem 5mg sublingual tablet, 1 nocte</div>
        </text>
        <status value="active"/>
        <medicationCodeableConcept>
          <coding>
            <system value="http://snomed.info/ct"/>
            <code value="442160008"/>
            <display value="zolpidem 5mg sublingual tablet"/>
          </coding>
          <text value="zolpidem 5mg sublingual tablet"/>
        </medicationCodeableConcept>
        <subject>
          <reference value="Patient/45579"/>
        </subject>
        <dosage>
          <text value="1 tab before bed"/>
          <timing>
            <repeat>
              <frequency value="1"/>
              <period value="1"/>
              <periodUnit value="d"/>
            </repeat>
          </timing>
        </dosage>
      </MedicationStatement>
    </resource>
    <search>
      <mode value="match"/>
    </search>
  </entry>
  <entry>
    <fullUrl value="http://hapi.fhir.org/baseR4/MedicationStatement/45637"/>
    <resource>
      <MedicationStatement>
        <id value="45637"/>
        <meta>
          <versionId value="1"/>
          <lastUpdated value="2019-10-11T16:17:42.365+00:00"/>
          <source value="#c4d50cafcf925fe8"/>
        </meta>
        <text>
          <status value="generated"/>
          <div>chlortalidone 15 mg once daily</div>
        </text>
        <status value="active"/>
        <medicationCodeableConcept>
          <coding>
            <system value="http://snomed.info/ct"/>
            <code value="376321007"/>
            <display value="chlortalidone 15 mg"/>
          </coding>
          <text value="chlortalidone 15 mg"/>
        </medicationCodeableConcept>
        <subject>
          <reference value="Patient/45579"/>
        </subject>
        <dosage>
          <text value="once daily"/>
          <timing>
            <repeat>
              <frequency value="1"/>
              <period value="1"/>
              <periodUnit value="d"/>
            </repeat>
          </timing>
        </dosage>
      </MedicationStatement>
    </resource>
    <search>
      <mode value="match"/>
    </search>
  </entry>
  <entry>
    <fullUrl value="http://hapi.fhir.org/baseR4/MedicationStatement/45647"/>
    <resource>
      <MedicationStatement>
        <id value="45647"/>
        <meta>
          <versionId value="1"/>
          <lastUpdated value="2019-10-11T16:17:42.365+00:00"/>
          <source value="#c4d50cafcf925fe8"/>
        </meta>
        <text>
          <status value="generated"/>
          <div>terbinafine 250mg once daily</div>
        </text>
        <status value="active"/>
        <medicationCodeableConcept>
          <coding>
            <system value="http://snomed.info/ct"/>
            <code value="324718007"/>
            <display value="terbinafine 250mg"/>
          </coding>
          <text value="terbinafine 250mg"/>
        </medicationCodeableConcept>
        <subject>
          <reference value="Patient/45579"/>
        </subject>
        <dosage>
          <text value="1 tab once daily"/>
          <timing>
            <repeat>
              <frequency value="1"/>
              <period value="1"/>
              <periodUnit value="d"/>
            </repeat>
          </timing>
          <asNeededBoolean value="true"/>
        </dosage>
      </MedicationStatement>
    </resource>
    <search>
      <mode value="match"/>
    </search>
  </entry>
  <entry>
    <fullUrl value="http://hapi.fhir.org/baseR4/MedicationStatement/45636"/>
    <resource>
      <MedicationStatement>
        <id value="45636"/>
        <meta>
          <versionId value="1"/>
          <lastUpdated value="2019-10-11T16:17:42.365+00:00"/>
          <source value="#c4d50cafcf925fe8"/>
        </meta>
        <text>
          <status value="generated"/>
          <div>carvedilol 25 mg twice daily</div>
        </text>
        <status value="active"/>
        <medicationCodeableConcept>
          <coding>
            <system value="http://snomed.info/ct"/>
            <code value="318632005"/>
            <display value="carvedilol 25 mg"/>
          </coding>
          <text value="carvedilol 25 mg"/>
        </medicationCodeableConcept>
        <subject>
          <reference value="Patient/45579"/>
        </subject>
        <dosage>
          <text value="twice daily"/>
          <timing>
            <repeat>
              <frequency value="2"/>
              <period value="1"/>
              <periodUnit value="d"/>
            </repeat>
          </timing>
        </dosage>
      </MedicationStatement>
    </resource>
    <search>
      <mode value="match"/>
    </search>
  </entry>
  <entry>
    <fullUrl value="http://hapi.fhir.org/baseR4/MedicationStatement/45642"/>
    <resource>
      <MedicationStatement>
        <id value="45642"/>
        <meta>
          <versionId value="1"/>
          <lastUpdated value="2019-10-11T16:17:42.365+00:00"/>
          <source value="#c4d50cafcf925fe8"/>
        </meta>
        <text>
          <status value="generated"/>
          <div>metformin 1000mg twice daily</div>
        </text>
        <status value="active"/>
        <medicationCodeableConcept>
          <coding>
            <system value="http://snomed.info/ct"/>
            <code value="411533003"/>
            <display value="metformin 1000mg"/>
          </coding>
          <text value="metformin 1000mg"/>
        </medicationCodeableConcept>
        <subject>
          <reference value="Patient/45579"/>
        </subject>
        <dosage>
          <text value="1 tab twice daily"/>
          <timing>
            <repeat>
              <frequency value="2"/>
              <period value="1"/>
              <periodUnit value="d"/>
            </repeat>
          </timing>
        </dosage>
      </MedicationStatement>
    </resource>
    <search>
      <mode value="match"/>
    </search>
  </entry>
  <entry>
    <fullUrl value="http://hapi.fhir.org/baseR4/MedicationStatement/45641"/>
    <resource>
      <MedicationStatement>
        <id value="45641"/>
        <meta>
          <versionId value="1"/>
          <lastUpdated value="2019-10-11T16:17:42.365+00:00"/>
          <source value="#c4d50cafcf925fe8"/>
        </meta>
        <text>
          <status value="generated"/>
          <div>losartan 100mg + hydrochlorothiazide 12.5mg once daily</div>
        </text>
        <status value="active"/>
        <medicationCodeableConcept>
          <coding>
            <system value="http://snomed.info/ct"/>
            <code value="444639002"/>
            <display value="losartan 100mg + hydrochlorothiazide 12.5mg"/>
          </coding>
          <text value="losartan 100mg + hydrochlorothiazide 12.5mg"/>
        </medicationCodeableConcept>
        <subject>
          <reference value="Patient/45579"/>
        </subject>
        <dosage>
          <text value="once daily"/>
          <timing>
            <repeat>
              <frequency value="1"/>
              <period value="1"/>
              <periodUnit value="d"/>
            </repeat>
          </timing>
        </dosage>
      </MedicationStatement>
    </resource>
    <search>
      <mode value="match"/>
    </search>
  </entry>
  <entry>
    <fullUrl value="http://hapi.fhir.org/baseR4/MedicationStatement/45644"/>
    <resource>
      <MedicationStatement>
        <id value="45644"/>
        <meta>
          <versionId value="1"/>
          <lastUpdated value="2019-10-11T16:17:42.365+00:00"/>
          <source value="#c4d50cafcf925fe8"/>
        </meta>
        <text>
          <status value="generated"/>
          <div>omeprazole 40mg daily</div>
        </text>
        <status value="active"/>
        <medicationCodeableConcept>
          <coding>
            <system value="http://snomed.info/ct"/>
            <code value="407848004"/>
            <display value="omeprazole 40mg e/c tablet"/>
          </coding>
          <text value="omeprazole 40mg e/c tablet "/>
        </medicationCodeableConcept>
        <subject>
          <reference value="Patient/45579"/>
        </subject>
        <dosage>
          <text value="1 tab once daily"/>
          <timing>
            <repeat>
              <frequency value="1"/>
              <period value="1"/>
              <periodUnit value="d"/>
            </repeat>
          </timing>
        </dosage>
      </MedicationStatement>
    </resource>
    <search>
      <mode value="match"/>
    </search>
  </entry>
  <entry>
    <fullUrl value="http://hapi.fhir.org/baseR4/MedicationStatement/45643"/>
    <resource>
      <MedicationStatement>
        <id value="45643"/>
        <meta>
          <versionId value="1"/>
          <lastUpdated value="2019-10-11T16:17:42.365+00:00"/>
          <source value="#c4d50cafcf925fe8"/>
        </meta>
        <text>
          <status value="generated"/>
          <div>naproxen 500mg twice daily</div>
        </text>
        <status value="active"/>
        <medicationCodeableConcept>
          <coding>
            <system value="http://snomed.info/ct"/>
            <code value="329839005"/>
            <display value="naproxen 500mg e/c tablet"/>
          </coding>
          <text value="naproxen 500mg e/c tablet"/>
        </medicationCodeableConcept>
        <subject>
          <reference value="Patient/45579"/>
        </subject>
        <dosage>
          <text value="1 tab twice daily"/>
          <timing>
            <repeat>
              <frequency value="2"/>
              <period value="1"/>
              <periodUnit value="d"/>
            </repeat>
          </timing>
        </dosage>
      </MedicationStatement>
    </resource>
    <search>
      <mode value="match"/>
    </search>
  </entry>
  <entry>
    <fullUrl value="http://hapi.fhir.org/baseR4/MedicationStatement/45633"/>
    <resource>
      <MedicationStatement>
        <id value="45633"/>
        <meta>
          <versionId value="1"/>
          <lastUpdated value="2019-10-11T16:17:42.365+00:00"/>
          <source value="#c4d50cafcf925fe8"/>
        </meta>
        <text>
          <status value="generated"/>
          <div>salbutamol inhaler 2 puffs every 4 hours as required</div>
        </text>
        <status value="active"/>
        <medicationCodeableConcept>
          <coding>
            <system value="http://snomed.info/ct"/>
            <code value=" 320176004"/>
            <display value=" salbutamol 100micrograms/inhaler "/>
          </coding>
          <text value="salbutamol 100micrograms/inhaler"/>
        </medicationCodeableConcept>
        <subject>
          <reference value="Patient/45579"/>
        </subject>
        <dosage>
          <text value="2 puffs every 4 hours as needed"/>
          <timing>
            <repeat>
              <frequency value="1"/>
              <period value="4"/>
              <periodUnit value="h"/>
            </repeat>
          </timing>
          <asNeededBoolean value="true"/>
        </dosage>
      </MedicationStatement>
    </resource>
    <search>
      <mode value="match"/>
    </search>
  </entry>
  <entry>
    <fullUrl value="http://hapi.fhir.org/baseR4/MedicationStatement/45564"/>
    <resource>
      <MedicationStatement>
        <id value="45564"/>
        <meta>
          <versionId value="1"/>
          <lastUpdated value="2019-10-11T12:11:47.762+00:00"/>
          <source value="#3b2fea9f57b18bd3"/>
        </meta>
        <status value="completed"/>
        <statusReason>
          <coding>
            <system value="http://snomed.info/sct"/>
            <code value="182862001"/>
            <display value="Drug not taken - dislike taste"/>
          </coding>
        </statusReason>
        <category>
          <coding>
            <system value="http://terminology.hl7.org/CodeSystem/medication-statement-category"/>
            <code value="inpatient"/>
            <display value="Inpatient"/>
          </coding>
        </category>
        <medicationCodeableConcept>
          <coding>
            <system value="http://snomed.info/sct"/>
            <code value="261000"/>
            <display value="Codeine phosphate"/>
          </coding>
        </medicationCodeableConcept>
        <subject>
          <reference value="Patient/39089"/>
        </subject>
        <context>
          <reference value="Encounter/45553"/>
        </context>
        <effectivePeriod>
          <start value="2009-09-01T04:10:38.000+00:00"/>
          <end value="2009-09-01T04:10:38.000+00:00"/>
        </effectivePeriod>
        <dateAsserted value="2009-09-01T04:10:38"/>
        <reasonCode>
          <coding>
            <system value="http://snomed.info/sct"/>
            <code value="109006"/>
            <display value="Anxiety disorder of childhood OR adolescence"/>
          </coding>
        </reasonCode>
      </MedicationStatement>
    </resource>
    <search>
      <mode value="match"/>
    </search>
  </entry>
  <entry>
    <fullUrl value="http://hapi.fhir.org/baseR4/Encounter/45553"/>
    <resource>
      <Encounter>
        <id value="45553"/>
        <meta>
          <versionId value="1"/>
          <lastUpdated value="2019-10-11T12:11:47.762+00:00"/>
          <source value="#3b2fea9f57b18bd3"/>
        </meta>
        <identifier>
          <use value="official"/>
          <type>
            <coding>
              <system value="http://terminology.hl7.org/CodeSystem/v2-0203"/>
              <code value="MR"/>
              <display value="Medical record number"/>
            </coding>
          </type>
          <value value="12345777"/>
        </identifier>
        <status value="finished"/>
        <class>
          <code value="inpatient"/>
        </class>
        <priority>
          <coding>
            <system value="http://terminology.hl7.org/CodeSystem/v3-ActPriority"/>
            <code value="EL"/>
            <display value="elective"/>
          </coding>
        </priority>
        <subject>
          <reference value="Patient/39089"/>
          <display value="LN3062 FN3062 MN3062"/>
        </subject>
        <participant>
          <individual>
            <reference value="Practitioner/1472"/>
          </individual>
        </participant>
        <participant>
          <individual>
            <reference value="Practitioner/1473"/>
          </individual>
        </participant>
        <participant>
          <individual>
            <reference value="Practitioner/1474"/>
          </individual>
        </participant>
        <participant>
          <individual>
            <reference value="Practitioner/1475"/>
          </individual>
        </participant>
        <period>
          <start value="2010-11-11T11:12:14.456+07:00"/>
          <end value="2010-11-11T11:12:14.456+07:00"/>
        </period>
        <reasonCode>
          <coding>
            <system value="http://snomed.info/sct"/>
            <code value="109006"/>
            <display value="Anxiety disorder of childhood OR adolescence (disorder)"/>
          </coding>
        </reasonCode>
        <hospitalization>
          <preAdmissionIdentifier>
            <use value="official"/>
            <value value="1234"/>
          </preAdmissionIdentifier>
          <admitSource>
            <coding>
              <system value="http://terminology.hl7.org/CodeSystem/admit-source"/>
              <code value="hosp-trans"/>
              <display value="Transferred from other hospital"/>
            </coding>
          </admitSource>
          <reAdmission>
            <coding>
              <userSelected value="true"/>
            </coding>
          </reAdmission>
          <dietPreference>
            <coding>
              <system value="http://terminology.hl7.org/CodeSystem/diet"/>
              <code value="vegetarian"/>
              <display value="Vegetarian"/>
            </coding>
          </dietPreference>
          <dischargeDisposition>
            <coding>
              <system value="http://terminology.hl7.org/CodeSystem/discharge-disposition"/>
              <code value="aadvice"/>
              <display value="Left against advice"/>
            </coding>
          </dischargeDisposition>
        </hospitalization>
        <location>
          <location>
            <reference value="Location/45551"/>
          </location>
          <physicalType>
            <coding>
              <system value="http://terminology.hl7.org/CodeSystem/location-physical-type"/>
              <code value="bu"/>
              <display value="Building"/>
            </coding>
          </physicalType>
        </location>
        <serviceProvider>
          <reference value="Organization/185"/>
        </serviceProvider>
      </Encounter>
    </resource>
    <search>
      <mode value="include"/>
    </search>
  </entry>
  <entry>
    <fullUrl value="http://hapi.fhir.org/baseR4/Patient/39089"/>
    <resource>
      <Patient>
        <id value="39089"/>
        <meta>
          <versionId value="1"/>
          <lastUpdated value="2019-10-01T10:53:20.578+00:00"/>
          <source value="#65be93fc3146e3e8"/>
        </meta>
        <text>
          <status value="generated"/>
          <div>
            <div class="hapiHeaderText">FN3062 MN3062 
                     <b>LN3062 </b>
                  </div>
            <table class="hapiPropertyTable">
              <tbody>
                <tr>
                  <td>Identifier</td>
                  <td>shwetha1</td>
                </tr>
                <tr>
                  <td>Address</td>
                  <td>
                    <span>Street comp1 comp2 </span>
                    <br/>
                    <span>AddLine2 </span>
                    <br/>
                    <span>Seattle </span>
                    <span>WA </span>
                    <span>USA </span>
                  </td>
                </tr>
                <tr>
                  <td>Date of birth</td>
                  <td>
                    <span>10 October 2001</span>
                  </td>
                </tr>
              </tbody>
            </table>
          </div>
        </text>
        <identifier>
          <use value="usual"/>
          <type>
            <coding>
              <system value="http://terminology.hl7.org/CodeSystem/v2-0203"/>
              <code value="MR"/>
              <display value="Medical record number"/>
            </coding>
          </type>
          <system value="http://hl7.org/fhir/identifier-type"/>
          <value value="shwetha1"/>
        </identifier>
        <identifier>
          <use value="official"/>
          <type>
            <coding>
              <system value="http://terminology.hl7.org/CodeSystem/v2-0203"/>
              <code value="PLAC"/>
              <display value="Placer Identifier"/>
            </coding>
          </type>
          <system value="http://hl7.org/fhir/identifier-type"/>
          <value value="23062"/>
        </identifier>
        <identifier>
          <use value="official"/>
          <type>
            <coding>
              <system value="http://terminology.hl7.org/CodeSystem/v2-0203"/>
              <code value="PRN"/>
              <display value="Provider number"/>
            </coding>
          </type>
          <system value="http://hl7.org/fhir/sid/us-ssn"/>
          <value value="111222333"/>
        </identifier>
        <identifier>
          <use value="secondary"/>
          <type>
            <coding>
              <system value="http://terminology.hl7.org/CodeSystem/v2-0203"/>
              <code value="SNO"/>
              <display value="Serial Number"/>
            </coding>
          </type>
          <system value="http://hl7.org/fhir/identifier-type"/>
          <value value="2333"/>
        </identifier>
        <identifier>
          <use value="official"/>
          <type>
            <coding>
              <system value="http://terminology.hl7.org/CodeSystem/v2-0203"/>
              <code value="FILL"/>
              <display value="Filler Identifier"/>
            </coding>
          </type>
          <system value="https://radboud.nl/id"/>
          <value value="11111111111"/>
        </identifier>
        <identifier>
          <use value="official"/>
          <type>
            <coding>
              <system value="http://terminology.hl7.org/CodeSystem/v2-0203"/>
              <code value="DL"/>
              <display value="Driver's license number"/>
            </coding>
          </type>
          <system value="https://radboud.nl/identifiers/PatientIdentifier"/>
          <value value="33333333333"/>
        </identifier>
        <name>
          <use value="usual"/>
          <family value="LN3062"/>
          <given value="FN3062"/>
          <given value="MN3062"/>
        </name>
        <name>
          <use value="usual"/>
          <family value="Test"/>
          <given value="Test"/>
        </name>
        <telecom>
          <system value="phone"/>
          <value value="123-456-1111"/>
          <use value="home"/>
        </telecom>
        <telecom>
          <system value="phone"/>
          <value value="098-765-1111"/>
          <use value="work"/>
        </telecom>
        <telecom>
          <system value="email"/>
          <use value="home"/>
        </telecom>
        <telecom>
          <system value="email"/>
          <use value="work"/>
        </telecom>
        <gender value="male"/>
        <birthDate value="2001-10-10"/>
        <deceasedDateTime value="2010-11-11T11:12:14.000+05:30"/>
        <address>
          <use value="home"/>
          <line value="Street comp1 comp2"/>
          <line value="AddLine2"/>
          <city value="Seattle"/>
          <state value="WA"/>
          <postalCode value="98052"/>
          <country value="USA"/>
        </address>
        <maritalStatus>
          <coding>
            <system value="http://terminology.hl7.org/CodeSystem/v3-MaritalStatus"/>
            <code value="M"/>
            <display value="Married"/>
          </coding>
        </maritalStatus>
        <multipleBirthInteger value="2"/>
        <contact>
          <relationship>
            <coding>
              <system value="http://terminology.hl7.org/CodeSystem/v2-0131"/>
              <code value="N"/>
              <display value="Next-of-Kin"/>
            </coding>
          </relationship>
          <name>
            <family value="Jones"/>
            <given value="Sally"/>
            <given value="Andy"/>
          </name>
          <telecom>
            <system value="phone"/>
            <value value="123-456-1111"/>
            <use value="home"/>
          </telecom>
          <telecom>
            <system value="phone"/>
            <value value="321-654-2222"/>
            <use value="work"/>
          </telecom>
          <address>
            <use value="home"/>
            <line value="Street comp1 comp2"/>
            <line value="AddLine2"/>
            <city value="Seattle"/>
            <state value="WA"/>
            <postalCode value="98052"/>
            <country value="USA"/>
          </address>
          <gender value="female"/>
          <organization>
            <reference value="Organization/185"/>
          </organization>
        </contact>
        <communication>
          <language>
            <coding>
              <system value="urn:ietf:bcp:47"/>
              <code value="en"/>
              <display value="English"/>
            </coding>
          </language>
        </communication>
        <managingOrganization>
          <reference value="Organization/185"/>
        </managingOrganization>
      </Patient>
    </resource>
    <search>
      <mode value="include"/>
    </search>
  </entry>
  <entry>
    <fullUrl value="http://hapi.fhir.org/baseR4/Patient/45579"/>
    <resource>
      <Patient>
        <id value="45579"/>
        <meta>
          <versionId value="1"/>
          <lastUpdated value="2019-10-11T16:17:37.636+00:00"/>
          <source value="#72dcc1848c2e43fb"/>
        </meta>
        <text>
          <status value="generated"/>
          <div>Harriet Martin</div>
        </text>
        <name>
          <use value="official"/>
          <text value="Harriet Martin"/>
          <family value="Martin"/>
          <given value="Harriet"/>
        </name>
        <gender value="female"/>
        <birthDate value="1960-10-11"/>
      </Patient>
    </resource>
    <search>
      <mode value="include"/>
    </search>
  </entry>
</Bundle>
