<?xml version="1.0" encoding="UTF-8"?>
<Bundle>
  <id value="15792624-5f41-4e1b-89cd-99bb6d64f628"/>
  <meta>
    <lastUpdated value="2020-05-31T19:18:49.635+00:00"/>
  </meta>
  <type value="searchset"/>
  <total value="5700"/>
  <link>
    <relation value="self"/>
    <url value="http://hapi.fhir.org/baseR4?_getpages=15792624-5f41-4e1b-89cd-99bb6d64f628&amp;_getpagesoffset=5580&amp;_count=20&amp;_format=xml&amp;_pretty=true&amp;_bundletype=searchset"/>
  </link>
  <link>
    <relation value="next"/>
    <url value="http://hapi.fhir.org/baseR4?_getpages=15792624-5f41-4e1b-89cd-99bb6d64f628&amp;_getpagesoffset=5600&amp;_count=20&amp;_format=xml&amp;_pretty=true&amp;_bundletype=searchset"/>
  </link>
  <link>
    <relation value="previous"/>
    <url value="http://hapi.fhir.org/baseR4?_getpages=15792624-5f41-4e1b-89cd-99bb6d64f628&amp;_getpagesoffset=5560&amp;_count=20&amp;_format=xml&amp;_pretty=true&amp;_bundletype=searchset"/>
  </link>
  <entry>
    <fullUrl value="http://hapi.fhir.org/baseR4/MedicationStatement/45547"/>
    <resource>
      <MedicationStatement>
        <id value="45547"/>
        <meta>
          <versionId value="1"/>
          <lastUpdated value="2019-10-11T12:05:07.447+00:00"/>
          <source value="#ca9d75ee80903b11"/>
        </meta>
        <status value="completed"/>
        <statusReason>
          <coding>
            <system value="http://snomed.info/sct"/>
            <code value="182862001"/>
            <display value="Drug not taken - dislike taste"/>
          </coding>
        </statusReason>
        <category>
          <coding>
            <system value="http://terminology.hl7.org/CodeSystem/medication-statement-category"/>
            <code value="inpatient"/>
            <display value="Inpatient"/>
          </coding>
        </category>
        <medicationCodeableConcept>
          <coding>
            <system value="http://snomed.info/sct"/>
            <code value="261000"/>
            <display value="Codeine phosphate"/>
          </coding>
        </medicationCodeableConcept>
        <subject>
          <reference value="Patient/39089"/>
        </subject>
        <context>
          <reference value="Encounter/45536"/>
        </context>
        <effectivePeriod>
          <start value="2009-09-01T04:10:38.000+00:00"/>
          <end value="2009-09-01T04:10:38.000+00:00"/>
        </effectivePeriod>
        <dateAsserted value="2009-09-01T04:10:38"/>
        <reasonCode>
          <coding>
            <system value="http://snomed.info/sct"/>
            <code value="109006"/>
            <display value="Anxiety disorder of childhood OR adolescence"/>
          </coding>
        </reasonCode>
      </MedicationStatement>
    </resource>
    <search>
      <mode value="match"/>
    </search>
  </entry>
  <entry>
    <fullUrl value="http://hapi.fhir.org/baseR4/MedicationStatement/45530"/>
    <resource>
      <MedicationStatement>
        <id value="45530"/>
        <meta>
          <versionId value="1"/>
          <lastUpdated value="2019-10-11T12:03:15.055+00:00"/>
          <source value="#16132e01596da173"/>
        </meta>
        <status value="completed"/>
        <statusReason>
          <coding>
            <system value="http://snomed.info/sct"/>
            <code value="182862001"/>
            <display value="Drug not taken - dislike taste"/>
          </coding>
        </statusReason>
        <category>
          <coding>
            <system value="http://terminology.hl7.org/CodeSystem/medication-statement-category"/>
            <code value="inpatient"/>
            <display value="Inpatient"/>
          </coding>
        </category>
        <medicationCodeableConcept>
          <coding>
            <system value="http://snomed.info/sct"/>
            <code value="261000"/>
            <display value="Codeine phosphate"/>
          </coding>
        </medicationCodeableConcept>
        <subject>
          <reference value="Patient/39089"/>
        </subject>
        <context>
          <reference value="Encounter/45519"/>
        </context>
        <effectivePeriod>
          <start value="2009-09-01T04:10:38.000+00:00"/>
          <end value="2009-09-01T04:10:38.000+00:00"/>
        </effectivePeriod>
        <dateAsserted value="2009-09-01T04:10:38"/>
        <reasonCode>
          <coding>
            <system value="http://snomed.info/sct"/>
            <code value="109006"/>
            <display value="Anxiety disorder of childhood OR adolescence"/>
          </coding>
        </reasonCode>
      </MedicationStatement>
    </resource>
    <search>
      <mode value="match"/>
    </search>
  </entry>
  <entry>
    <fullUrl value="http://hapi.fhir.org/baseR4/MedicationStatement/45497"/>
    <resource>
      <MedicationStatement>
        <id value="45497"/>
        <meta>
          <versionId value="1"/>
          <lastUpdated value="2019-10-11T11:23:15.413+00:00"/>
          <source value="#b4ca5d0ed638c947"/>
        </meta>
        <status value="completed"/>
        <statusReason>
          <coding>
            <system value="http://snomed.info/sct"/>
            <code value="182862001"/>
            <display value="Drug not taken - dislike taste"/>
          </coding>
        </statusReason>
        <category>
          <coding>
            <system value="http://terminology.hl7.org/CodeSystem/medication-statement-category"/>
            <code value="inpatient"/>
            <display value="Inpatient"/>
          </coding>
        </category>
        <medicationCodeableConcept>
          <coding>
            <system value="http://snomed.info/sct"/>
            <code value="261000"/>
            <display value="Codeine phosphate"/>
          </coding>
        </medicationCodeableConcept>
        <subject>
          <reference value="Patient/39089"/>
        </subject>
        <context>
          <reference value="Encounter/45486"/>
        </context>
        <effectivePeriod>
          <start value="2009-09-01T04:10:38.000+00:00"/>
          <end value="2009-09-01T04:10:38.000+00:00"/>
        </effectivePeriod>
        <dateAsserted value="2009-09-01T04:10:38"/>
        <reasonCode>
          <coding>
            <system value="http://snomed.info/sct"/>
            <code value="109006"/>
            <display value="Anxiety disorder of childhood OR adolescence"/>
          </coding>
        </reasonCode>
      </MedicationStatement>
    </resource>
    <search>
      <mode value="match"/>
    </search>
  </entry>
  <entry>
    <fullUrl value="http://hapi.fhir.org/baseR4/MedicationStatement/45444"/>
    <resource>
      <MedicationStatement>
        <id value="45444"/>
        <meta>
          <versionId value="1"/>
          <lastUpdated value="2019-10-11T10:04:31.552+00:00"/>
          <source value="#5d33289d59dce5d8"/>
        </meta>
        <status value="completed"/>
        <statusReason>
          <coding>
            <system value="http://snomed.info/sct"/>
            <code value="182862001"/>
            <display value="Drug not taken - dislike taste"/>
          </coding>
        </statusReason>
        <category>
          <coding>
            <system value="http://terminology.hl7.org/CodeSystem/medication-statement-category"/>
            <code value="inpatient"/>
            <display value="Inpatient"/>
          </coding>
        </category>
        <medicationCodeableConcept>
          <coding>
            <system value="http://snomed.info/sct"/>
            <code value="261000"/>
            <display value="Codeine phosphate"/>
          </coding>
        </medicationCodeableConcept>
        <subject>
          <reference value="Patient/39089"/>
        </subject>
        <context>
          <reference value="Encounter/45433"/>
        </context>
        <effectivePeriod>
          <start value="2009-09-01T04:10:38.000+00:00"/>
          <end value="2009-09-01T04:10:38.000+00:00"/>
        </effectivePeriod>
        <dateAsserted value="2009-09-01T04:10:38"/>
        <reasonCode>
          <coding>
            <system value="http://snomed.info/sct"/>
            <code value="109006"/>
            <display value="Anxiety disorder of childhood OR adolescence"/>
          </coding>
        </reasonCode>
      </MedicationStatement>
    </resource>
    <search>
      <mode value="match"/>
    </search>
  </entry>
  <entry>
    <fullUrl value="http://hapi.fhir.org/baseR4/MedicationStatement/45392"/>
    <resource>
      <MedicationStatement>
        <id value="45392"/>
        <meta>
          <versionId value="1"/>
          <lastUpdated value="2019-10-11T09:51:03.981+00:00"/>
          <source value="#9219f6e7acdf6d9f"/>
        </meta>
        <status value="completed"/>
        <statusReason>
          <coding>
            <system value="http://snomed.info/sct"/>
            <code value="182862001"/>
            <display value="Drug not taken - dislike taste"/>
          </coding>
        </statusReason>
        <category>
          <coding>
            <system value="http://terminology.hl7.org/CodeSystem/medication-statement-category"/>
            <code value="inpatient"/>
            <display value="Inpatient"/>
          </coding>
        </category>
        <medicationCodeableConcept>
          <coding>
            <system value="http://snomed.info/sct"/>
            <code value="261000"/>
            <display value="Codeine phosphate"/>
          </coding>
        </medicationCodeableConcept>
        <subject>
          <reference value="Patient/39089"/>
        </subject>
        <context>
          <reference value="Encounter/45381"/>
        </context>
        <effectivePeriod>
          <start value="2009-09-01T04:10:38.000+00:00"/>
          <end value="2009-09-01T04:10:38.000+00:00"/>
        </effectivePeriod>
        <dateAsserted value="2009-09-01T04:10:38"/>
        <reasonCode>
          <coding>
            <system value="http://snomed.info/sct"/>
            <code value="109006"/>
            <display value="Anxiety disorder of childhood OR adolescence"/>
          </coding>
        </reasonCode>
      </MedicationStatement>
    </resource>
    <search>
      <mode value="match"/>
    </search>
  </entry>
  <entry>
    <fullUrl value="http://hapi.fhir.org/baseR4/MedicationStatement/45376"/>
    <resource>
      <MedicationStatement>
        <id value="45376"/>
        <meta>
          <versionId value="1"/>
          <lastUpdated value="2019-10-11T09:40:23.971+00:00"/>
          <source value="#137562e0b72bde78"/>
        </meta>
        <status value="completed"/>
        <statusReason>
          <coding>
            <system value="http://snomed.info/sct"/>
            <code value="182862001"/>
            <display value="Drug not taken - dislike taste"/>
          </coding>
        </statusReason>
        <category>
          <coding>
            <system value="http://terminology.hl7.org/CodeSystem/medication-statement-category"/>
            <code value="inpatient"/>
            <display value="Inpatient"/>
          </coding>
        </category>
        <medicationCodeableConcept>
          <coding>
            <system value="http://snomed.info/sct"/>
            <code value="261000"/>
            <display value="Codeine phosphate"/>
          </coding>
        </medicationCodeableConcept>
        <subject>
          <reference value="Patient/39089"/>
        </subject>
        <context>
          <reference value="Encounter/45365"/>
        </context>
        <effectivePeriod>
          <start value="2009-09-01T04:10:38.000+00:00"/>
          <end value="2009-09-01T04:10:38.000+00:00"/>
        </effectivePeriod>
        <dateAsserted value="2009-09-01T04:10:38"/>
        <reasonCode>
          <coding>
            <system value="http://snomed.info/sct"/>
            <code value="109006"/>
            <display value="Anxiety disorder of childhood OR adolescence"/>
          </coding>
        </reasonCode>
      </MedicationStatement>
    </resource>
    <search>
      <mode value="match"/>
    </search>
  </entry>
  <entry>
    <fullUrl value="http://hapi.fhir.org/baseR4/MedicationStatement/45360"/>
    <resource>
      <MedicationStatement>
        <id value="45360"/>
        <meta>
          <versionId value="1"/>
          <lastUpdated value="2019-10-11T09:35:03.452+00:00"/>
          <source value="#ea23c7981cf245f5"/>
        </meta>
        <status value="completed"/>
        <statusReason>
          <coding>
            <system value="http://snomed.info/sct"/>
            <code value="182862001"/>
            <display value="Drug not taken - dislike taste"/>
          </coding>
        </statusReason>
        <category>
          <coding>
            <system value="http://terminology.hl7.org/CodeSystem/medication-statement-category"/>
            <code value="inpatient"/>
            <display value="Inpatient"/>
          </coding>
        </category>
        <medicationCodeableConcept>
          <coding>
            <system value="http://snomed.info/sct"/>
            <code value="261000"/>
            <display value="Codeine phosphate"/>
          </coding>
        </medicationCodeableConcept>
        <subject>
          <reference value="Patient/39089"/>
        </subject>
        <context>
          <reference value="Encounter/45349"/>
        </context>
        <effectivePeriod>
          <start value="2009-09-01T04:10:38.000+00:00"/>
          <end value="2009-09-01T04:10:38.000+00:00"/>
        </effectivePeriod>
        <dateAsserted value="2009-09-01T04:10:38"/>
        <reasonCode>
          <coding>
            <system value="http://snomed.info/sct"/>
            <code value="109006"/>
            <display value="Anxiety disorder of childhood OR adolescence"/>
          </coding>
        </reasonCode>
      </MedicationStatement>
    </resource>
    <search>
      <mode value="match"/>
    </search>
  </entry>
  <entry>
    <fullUrl value="http://hapi.fhir.org/baseR4/MedicationStatement/45344"/>
    <resource>
      <MedicationStatement>
        <id value="45344"/>
        <meta>
          <versionId value="1"/>
          <lastUpdated value="2019-10-11T09:23:34.393+00:00"/>
          <source value="#9f92afff97d1c73f"/>
        </meta>
        <status value="completed"/>
        <statusReason>
          <coding>
            <system value="http://snomed.info/sct"/>
            <code value="182862001"/>
            <display value="Drug not taken - dislike taste"/>
          </coding>
        </statusReason>
        <category>
          <coding>
            <system value="http://terminology.hl7.org/CodeSystem/medication-statement-category"/>
            <code value="inpatient"/>
            <display value="Inpatient"/>
          </coding>
        </category>
        <medicationCodeableConcept>
          <coding>
            <system value="http://snomed.info/sct"/>
            <code value="261000"/>
            <display value="Codeine phosphate"/>
          </coding>
        </medicationCodeableConcept>
        <subject>
          <reference value="Patient/39089"/>
        </subject>
        <context>
          <reference value="Encounter/45333"/>
        </context>
        <effectivePeriod>
          <start value="2009-09-01T04:10:38.000+00:00"/>
          <end value="2009-09-01T04:10:38.000+00:00"/>
        </effectivePeriod>
        <dateAsserted value="2009-09-01T04:10:38"/>
        <reasonCode>
          <coding>
            <system value="http://snomed.info/sct"/>
            <code value="109006"/>
            <display value="Anxiety disorder of childhood OR adolescence"/>
          </coding>
        </reasonCode>
      </MedicationStatement>
    </resource>
    <search>
      <mode value="match"/>
    </search>
  </entry>
  <entry>
    <fullUrl value="http://hapi.fhir.org/baseR4/MedicationStatement/45328"/>
    <resource>
      <MedicationStatement>
        <id value="45328"/>
        <meta>
          <versionId value="1"/>
          <lastUpdated value="2019-10-11T09:21:00.572+00:00"/>
          <source value="#92d0ba6ff883380b"/>
        </meta>
        <status value="completed"/>
        <statusReason>
          <coding>
            <system value="http://snomed.info/sct"/>
            <code value="182862001"/>
            <display value="Drug not taken - dislike taste"/>
          </coding>
        </statusReason>
        <category>
          <coding>
            <system value="http://terminology.hl7.org/CodeSystem/medication-statement-category"/>
            <code value="inpatient"/>
            <display value="Inpatient"/>
          </coding>
        </category>
        <medicationCodeableConcept>
          <coding>
            <system value="http://snomed.info/sct"/>
            <code value="261000"/>
            <display value="Codeine phosphate"/>
          </coding>
        </medicationCodeableConcept>
        <subject>
          <reference value="Patient/39089"/>
        </subject>
        <context>
          <reference value="Encounter/45317"/>
        </context>
        <effectivePeriod>
          <start value="2009-09-01T04:10:38.000+00:00"/>
          <end value="2009-09-01T04:10:38.000+00:00"/>
        </effectivePeriod>
        <dateAsserted value="2009-09-01T04:10:38"/>
        <reasonCode>
          <coding>
            <system value="http://snomed.info/sct"/>
            <code value="109006"/>
            <display value="Anxiety disorder of childhood OR adolescence"/>
          </coding>
        </reasonCode>
      </MedicationStatement>
    </resource>
    <search>
      <mode value="match"/>
    </search>
  </entry>
  <entry>
    <fullUrl value="http://hapi.fhir.org/baseR4/MedicationStatement/45312"/>
    <resource>
      <MedicationStatement>
        <id value="45312"/>
        <meta>
          <versionId value="1"/>
          <lastUpdated value="2019-10-11T09:09:37.028+00:00"/>
          <source value="#458abe564d424656"/>
        </meta>
        <status value="completed"/>
        <statusReason>
          <coding>
            <system value="http://snomed.info/sct"/>
            <code value="182862001"/>
            <display value="Drug not taken - dislike taste"/>
          </coding>
        </statusReason>
        <category>
          <coding>
            <system value="http://terminology.hl7.org/CodeSystem/medication-statement-category"/>
            <code value="inpatient"/>
            <display value="Inpatient"/>
          </coding>
        </category>
        <medicationCodeableConcept>
          <coding>
            <system value="http://snomed.info/sct"/>
            <code value="261000"/>
            <display value="Codeine phosphate"/>
          </coding>
        </medicationCodeableConcept>
        <subject>
          <reference value="Patient/39089"/>
        </subject>
        <context>
          <reference value="Encounter/45301"/>
        </context>
        <effectivePeriod>
          <start value="2009-09-01T04:10:38.000+00:00"/>
          <end value="2009-09-01T04:10:38.000+00:00"/>
        </effectivePeriod>
        <dateAsserted value="2009-09-01T04:10:38"/>
        <reasonCode>
          <coding>
            <system value="http://snomed.info/sct"/>
            <code value="109006"/>
            <display value="Anxiety disorder of childhood OR adolescence"/>
          </coding>
        </reasonCode>
      </MedicationStatement>
    </resource>
    <search>
      <mode value="match"/>
    </search>
  </entry>
  <entry>
    <fullUrl value="http://hapi.fhir.org/baseR4/MedicationStatement/45296"/>
    <resource>
      <MedicationStatement>
        <id value="45296"/>
        <meta>
          <versionId value="1"/>
          <lastUpdated value="2019-10-11T09:06:45.279+00:00"/>
          <source value="#b938c5db525867f4"/>
        </meta>
        <status value="completed"/>
        <statusReason>
          <coding>
            <system value="http://snomed.info/sct"/>
            <code value="182862001"/>
            <display value="Drug not taken - dislike taste"/>
          </coding>
        </statusReason>
        <category>
          <coding>
            <system value="http://terminology.hl7.org/CodeSystem/medication-statement-category"/>
            <code value="inpatient"/>
            <display value="Inpatient"/>
          </coding>
        </category>
        <medicationCodeableConcept>
          <coding>
            <system value="http://snomed.info/sct"/>
            <code value="261000"/>
            <display value="Codeine phosphate"/>
          </coding>
        </medicationCodeableConcept>
        <subject>
          <reference value="Patient/39089"/>
        </subject>
        <context>
          <reference value="Encounter/45285"/>
        </context>
        <effectivePeriod>
          <start value="2009-09-01T04:10:38.000+00:00"/>
          <end value="2009-09-01T04:10:38.000+00:00"/>
        </effectivePeriod>
        <dateAsserted value="2009-09-01T04:10:38"/>
        <reasonCode>
          <coding>
            <system value="http://snomed.info/sct"/>
            <code value="109006"/>
            <display value="Anxiety disorder of childhood OR adolescence"/>
          </coding>
        </reasonCode>
      </MedicationStatement>
    </resource>
    <search>
      <mode value="match"/>
    </search>
  </entry>
  <entry>
    <fullUrl value="http://hapi.fhir.org/baseR4/MedicationStatement/45262"/>
    <resource>
      <MedicationStatement>
        <id value="45262"/>
        <meta>
          <versionId value="1"/>
          <lastUpdated value="2019-10-11T05:32:15.325+00:00"/>
          <source value="#5b8e80a26dbed398"/>
        </meta>
        <status value="completed"/>
        <statusReason>
          <coding>
            <system value="http://snomed.info/sct"/>
            <code value="182862001"/>
            <display value="Drug not taken - dislike taste"/>
          </coding>
        </statusReason>
        <category>
          <coding>
            <system value="http://terminology.hl7.org/CodeSystem/medication-statement-category"/>
            <code value="inpatient"/>
            <display value="Inpatient"/>
          </coding>
        </category>
        <medicationCodeableConcept>
          <coding>
            <system value="http://snomed.info/sct"/>
            <code value="261000"/>
            <display value="Codeine phosphate"/>
          </coding>
        </medicationCodeableConcept>
        <subject>
          <reference value="Patient/39089"/>
        </subject>
        <context>
          <reference value="Encounter/45251"/>
        </context>
        <effectivePeriod>
          <start value="2009-09-01T04:10:38.000+00:00"/>
          <end value="2009-09-01T04:10:38.000+00:00"/>
        </effectivePeriod>
        <dateAsserted value="2009-09-01T04:10:38"/>
        <reasonCode>
          <coding>
            <system value="http://snomed.info/sct"/>
            <code value="109006"/>
            <display value="Anxiety disorder of childhood OR adolescence"/>
          </coding>
        </reasonCode>
      </MedicationStatement>
    </resource>
    <search>
      <mode value="match"/>
    </search>
  </entry>
  <entry>
    <fullUrl value="http://hapi.fhir.org/baseR4/MedicationStatement/45246"/>
    <resource>
      <MedicationStatement>
        <id value="45246"/>
        <meta>
          <versionId value="1"/>
          <lastUpdated value="2019-10-11T05:28:04.442+00:00"/>
          <source value="#fca992735620d1d6"/>
        </meta>
        <status value="completed"/>
        <statusReason>
          <coding>
            <system value="http://snomed.info/sct"/>
            <code value="182862001"/>
            <display value="Drug not taken - dislike taste"/>
          </coding>
        </statusReason>
        <category>
          <coding>
            <system value="http://terminology.hl7.org/CodeSystem/medication-statement-category"/>
            <code value="inpatient"/>
            <display value="Inpatient"/>
          </coding>
        </category>
        <medicationCodeableConcept>
          <coding>
            <system value="http://snomed.info/sct"/>
            <code value="261000"/>
            <display value="Codeine phosphate"/>
          </coding>
        </medicationCodeableConcept>
        <subject>
          <reference value="Patient/39089"/>
        </subject>
        <context>
          <reference value="Encounter/45235"/>
        </context>
        <effectivePeriod>
          <start value="2009-09-01T04:10:38.000+00:00"/>
          <end value="2009-09-01T04:10:38.000+00:00"/>
        </effectivePeriod>
        <dateAsserted value="2009-09-01T04:10:38"/>
        <reasonCode>
          <coding>
            <system value="http://snomed.info/sct"/>
            <code value="109006"/>
            <display value="Anxiety disorder of childhood OR adolescence"/>
          </coding>
        </reasonCode>
      </MedicationStatement>
    </resource>
    <search>
      <mode value="match"/>
    </search>
  </entry>
  <entry>
    <fullUrl value="http://hapi.fhir.org/baseR4/MedicationStatement/53364"/>
    <resource>
      <MedicationStatement>
        <id value="53364"/>
        <meta>
          <versionId value="1"/>
          <lastUpdated value="2019-11-01T21:53:29.077+00:00"/>
          <source value="#1l3hYmrDBOUuDZ2f"/>
        </meta>
        <identifier>
          <use value="official"/>
          <system value="https://www.edifecs.com/fhir/medicationstatement/identifier"/>
          <value value="a860d6994c2798d3ef2247f35ced7e5131d12ff6c5a9150c6cb21c585897fc1a"/>
        </identifier>
        <status value="active"/>
        <medicationCodeableConcept>
          <coding>
            <system value="2.16.840.1.113883.6.88"/>
            <code value="258395"/>
            <display value="Lisinopril"/>
          </coding>
          <text value="RxNorm"/>
        </medicationCodeableConcept>
        <subject>
          <reference value="Patient/53373"/>
          <type value="Patient"/>
        </subject>
        <effectivePeriod>
          <start value="2010-01-10"/>
        </effectivePeriod>
        <informationSource>
          <reference value="Practitioner/53268"/>
          <type value="Practitioner"/>
        </informationSource>
        <dosage>
          <doseAndRate>
            <doseQuantity>
              <value value="1"/>
              <unit value="1"/>
            </doseQuantity>
          </doseAndRate>
        </dosage>
      </MedicationStatement>
    </resource>
    <search>
      <mode value="match"/>
    </search>
  </entry>
  <entry>
    <fullUrl value="http://hapi.fhir.org/baseR4/MedicationStatement/53343"/>
    <resource>
      <MedicationStatement>
        <id value="53343"/>
        <meta>
          <versionId value="1"/>
          <lastUpdated value="2019-11-01T21:53:29.077+00:00"/>
          <source value="#1l3hYmrDBOUuDZ2f"/>
        </meta>
        <identifier>
          <use value="official"/>
          <system value="https://www.edifecs.com/fhir/medicationstatement/identifier"/>
          <value value="a860d6994c2798d3ef2247f35ced7e5131d12ff6c5a9150c6cb21c585897fc1a"/>
        </identifier>
        <status value="active"/>
        <medicationCodeableConcept>
          <coding>
            <system value="2.16.840.1.113883.6.88"/>
            <code value="258395"/>
            <display value="Lisinopril"/>
          </coding>
          <text value="RxNorm"/>
        </medicationCodeableConcept>
        <subject>
          <reference value="Patient/53373"/>
          <type value="Patient"/>
        </subject>
        <effectivePeriod>
          <start value="2010-01-10"/>
        </effectivePeriod>
        <informationSource>
          <reference value="Practitioner/53258"/>
          <type value="Practitioner"/>
        </informationSource>
        <dosage>
          <doseAndRate>
            <doseQuantity>
              <value value="1"/>
              <unit value="1"/>
            </doseQuantity>
          </doseAndRate>
        </dosage>
      </MedicationStatement>
    </resource>
    <search>
      <mode value="match"/>
    </search>
  </entry>
  <entry>
    <fullUrl value="http://hapi.fhir.org/baseR4/MedicationStatement/53332"/>
    <resource>
      <MedicationStatement>
        <id value="53332"/>
        <meta>
          <versionId value="1"/>
          <lastUpdated value="2019-11-01T21:37:05.589+00:00"/>
          <source value="#Pzd7PO3A3sZn4z63"/>
        </meta>
        <identifier>
          <use value="official"/>
          <system value="https://www.edifecs.com/fhir/medicationstatement/identifier"/>
          <value value="a860d6994c2798d3ef2247f35ced7e5131d12ff6c5a9150c6cb21c585897fc1a"/>
        </identifier>
        <status value="active"/>
        <medicationCodeableConcept>
          <coding>
            <system value="2.16.840.1.113883.6.88"/>
            <code value="258395"/>
            <display value="Lisinopril"/>
          </coding>
          <text value="RxNorm"/>
        </medicationCodeableConcept>
        <subject>
          <reference value="Patient/53254"/>
          <type value="Patient"/>
        </subject>
        <effectivePeriod>
          <start value="2010-01-10"/>
        </effectivePeriod>
        <informationSource>
          <reference value="Practitioner/53268"/>
          <type value="Practitioner"/>
        </informationSource>
        <dosage>
          <doseAndRate>
            <doseQuantity>
              <value value="1"/>
              <unit value="1"/>
            </doseQuantity>
          </doseAndRate>
        </dosage>
      </MedicationStatement>
    </resource>
    <search>
      <mode value="match"/>
    </search>
  </entry>
  <entry>
    <fullUrl value="http://hapi.fhir.org/baseR4/MedicationStatement/53311"/>
    <resource>
      <MedicationStatement>
        <id value="53311"/>
        <meta>
          <versionId value="1"/>
          <lastUpdated value="2019-11-01T21:37:05.589+00:00"/>
          <source value="#Pzd7PO3A3sZn4z63"/>
        </meta>
        <identifier>
          <use value="official"/>
          <system value="https://www.edifecs.com/fhir/medicationstatement/identifier"/>
          <value value="a860d6994c2798d3ef2247f35ced7e5131d12ff6c5a9150c6cb21c585897fc1a"/>
        </identifier>
        <status value="active"/>
        <medicationCodeableConcept>
          <coding>
            <system value="2.16.840.1.113883.6.88"/>
            <code value="258395"/>
            <display value="Lisinopril"/>
          </coding>
          <text value="RxNorm"/>
        </medicationCodeableConcept>
        <subject>
          <reference value="Patient/53254"/>
          <type value="Patient"/>
        </subject>
        <effectivePeriod>
          <start value="2010-01-10"/>
        </effectivePeriod>
        <informationSource>
          <reference value="Practitioner/53258"/>
          <type value="Practitioner"/>
        </informationSource>
        <dosage>
          <doseAndRate>
            <doseQuantity>
              <value value="1"/>
              <unit value="1"/>
            </doseQuantity>
          </doseAndRate>
        </dosage>
      </MedicationStatement>
    </resource>
    <search>
      <mode value="match"/>
    </search>
  </entry>
  <entry>
    <fullUrl value="http://hapi.fhir.org/baseR4/MedicationStatement/53300"/>
    <resource>
      <MedicationStatement>
        <id value="53300"/>
        <meta>
          <versionId value="1"/>
          <lastUpdated value="2019-11-01T21:17:13.179+00:00"/>
          <source value="#Ko2zSJYYXW4YoaIn"/>
        </meta>
        <identifier>
          <use value="official"/>
          <system value="https://www.edifecs.com/fhir/medicationstatement/identifier"/>
          <value value="a860d6994c2798d3ef2247f35ced7e5131d12ff6c5a9150c6cb21c585897fc1a"/>
        </identifier>
        <status value="active"/>
        <medicationCodeableConcept>
          <coding>
            <system value="2.16.840.1.113883.6.88"/>
            <code value="258395"/>
            <display value="Lisinopril"/>
          </coding>
          <text value="RxNorm"/>
        </medicationCodeableConcept>
        <subject>
          <reference value="Patient/53254"/>
          <type value="Patient"/>
        </subject>
        <effectivePeriod>
          <start value="2010-01-10"/>
        </effectivePeriod>
        <informationSource>
          <reference value="Practitioner/53268"/>
          <type value="Practitioner"/>
        </informationSource>
        <dosage>
          <doseAndRate>
            <doseQuantity>
              <value value="1"/>
              <unit value="1"/>
            </doseQuantity>
          </doseAndRate>
        </dosage>
      </MedicationStatement>
    </resource>
    <search>
      <mode value="match"/>
    </search>
  </entry>
  <entry>
    <fullUrl value="http://hapi.fhir.org/baseR4/MedicationStatement/53279"/>
    <resource>
      <MedicationStatement>
        <id value="53279"/>
        <meta>
          <versionId value="1"/>
          <lastUpdated value="2019-11-01T21:17:13.179+00:00"/>
          <source value="#Ko2zSJYYXW4YoaIn"/>
        </meta>
        <identifier>
          <use value="official"/>
          <system value="https://www.edifecs.com/fhir/medicationstatement/identifier"/>
          <value value="a860d6994c2798d3ef2247f35ced7e5131d12ff6c5a9150c6cb21c585897fc1a"/>
        </identifier>
        <status value="active"/>
        <medicationCodeableConcept>
          <coding>
            <system value="2.16.840.1.113883.6.88"/>
            <code value="258395"/>
            <display value="Lisinopril"/>
          </coding>
          <text value="RxNorm"/>
        </medicationCodeableConcept>
        <subject>
          <reference value="Patient/53254"/>
          <type value="Patient"/>
        </subject>
        <effectivePeriod>
          <start value="2010-01-10"/>
        </effectivePeriod>
        <informationSource>
          <reference value="Practitioner/53258"/>
          <type value="Practitioner"/>
        </informationSource>
        <dosage>
          <doseAndRate>
            <doseQuantity>
              <value value="1"/>
              <unit value="1"/>
            </doseQuantity>
          </doseAndRate>
        </dosage>
      </MedicationStatement>
    </resource>
    <search>
      <mode value="match"/>
    </search>
  </entry>
  <entry>
    <fullUrl value="http://hapi.fhir.org/baseR4/MedicationStatement/53243"/>
    <resource>
      <MedicationStatement>
        <id value="53243"/>
        <meta>
          <versionId value="1"/>
          <lastUpdated value="2019-11-01T18:21:32.312+00:00"/>
          <source value="#jkcy2CmYvZIMfcnV"/>
        </meta>
        <identifier>
          <use value="official"/>
          <system value="https://www.edifecs.com/fhir/medicationstatement/identifier"/>
          <value value="a860d6994c2798d3ef2247f35ced7e5131d12ff6c5a9150c6cb21c585897fc1a"/>
        </identifier>
        <status value="active"/>
        <medicationCodeableConcept>
          <coding>
            <system value="2.16.840.1.113883.6.88"/>
            <code value="258395"/>
            <display value="Lisinopril"/>
          </coding>
          <text value="RxNorm"/>
        </medicationCodeableConcept>
        <subject>
          <reference value="Patient/53254"/>
          <type value="Patient"/>
        </subject>
        <effectivePeriod>
          <start value="2010-01-10"/>
        </effectivePeriod>
        <informationSource>
          <reference value="Practitioner/53268"/>
          <type value="Practitioner"/>
        </informationSource>
        <dosage>
          <doseAndRate>
            <doseQuantity>
              <value value="1"/>
              <unit value="1"/>
            </doseQuantity>
          </doseAndRate>
        </dosage>
      </MedicationStatement>
    </resource>
    <search>
      <mode value="match"/>
    </search>
  </entry>
  <entry>
    <fullUrl value="http://hapi.fhir.org/baseR4/Encounter/45536"/>
    <resource>
      <Encounter>
        <id value="45536"/>
        <meta>
          <versionId value="1"/>
          <lastUpdated value="2019-10-11T12:05:07.447+00:00"/>
          <source value="#ca9d75ee80903b11"/>
        </meta>
        <identifier>
          <use value="official"/>
          <type>
            <coding>
              <system value="http://terminology.hl7.org/CodeSystem/v2-0203"/>
              <code value="MR"/>
              <display value="Medical record number"/>
            </coding>
          </type>
          <value value="12345777"/>
        </identifier>
        <status value="finished"/>
        <class>
          <code value="inpatient"/>
        </class>
        <priority>
          <coding>
            <system value="http://terminology.hl7.org/CodeSystem/v3-ActPriority"/>
            <code value="EL"/>
            <display value="elective"/>
          </coding>
        </priority>
        <subject>
          <reference value="Patient/39089"/>
          <display value="LN3062 FN3062 MN3062"/>
        </subject>
        <participant>
          <individual>
            <reference value="Practitioner/1472"/>
          </individual>
        </participant>
        <participant>
          <individual>
            <reference value="Practitioner/1473"/>
          </individual>
        </participant>
        <participant>
          <individual>
            <reference value="Practitioner/1474"/>
          </individual>
        </participant>
        <participant>
          <individual>
            <reference value="Practitioner/1475"/>
          </individual>
        </participant>
        <period>
          <start value="2010-11-11T11:12:14.456+07:00"/>
          <end value="2010-11-11T11:12:14.456+07:00"/>
        </period>
        <reasonCode>
          <coding>
            <system value="http://snomed.info/sct"/>
            <code value="109006"/>
            <display value="Anxiety disorder of childhood OR adolescence (disorder)"/>
          </coding>
        </reasonCode>
        <hospitalization>
          <preAdmissionIdentifier>
            <use value="official"/>
            <value value="1234"/>
          </preAdmissionIdentifier>
          <admitSource>
            <coding>
              <system value="http://terminology.hl7.org/CodeSystem/admit-source"/>
              <code value="hosp-trans"/>
              <display value="Transferred from other hospital"/>
            </coding>
          </admitSource>
          <reAdmission>
            <coding>
              <userSelected value="true"/>
            </coding>
          </reAdmission>
          <dietPreference>
            <coding>
              <system value="http://terminology.hl7.org/CodeSystem/diet"/>
              <code value="vegetarian"/>
              <display value="Vegetarian"/>
            </coding>
          </dietPreference>
          <dischargeDisposition>
            <coding>
              <system value="http://terminology.hl7.org/CodeSystem/discharge-disposition"/>
              <code value="aadvice"/>
              <display value="Left against advice"/>
            </coding>
          </dischargeDisposition>
        </hospitalization>
        <location>
          <location>
            <reference value="Location/45534"/>
          </location>
          <physicalType>
            <coding>
              <system value="http://terminology.hl7.org/CodeSystem/location-physical-type"/>
              <code value="bu"/>
              <display value="Building"/>
            </coding>
          </physicalType>
        </location>
        <serviceProvider>
          <reference value="Organization/185"/>
        </serviceProvider>
      </Encounter>
    </resource>
    <search>
      <mode value="include"/>
    </search>
  </entry>
  <entry>
    <fullUrl value="http://hapi.fhir.org/baseR4/Encounter/45251"/>
    <resource>
      <Encounter>
        <id value="45251"/>
        <meta>
          <versionId value="1"/>
          <lastUpdated value="2019-10-11T05:32:15.325+00:00"/>
          <source value="#5b8e80a26dbed398"/>
        </meta>
        <identifier>
          <use value="official"/>
          <type>
            <coding>
              <system value="http://terminology.hl7.org/CodeSystem/v2-0203"/>
              <code value="MR"/>
              <display value="Medical record number"/>
            </coding>
          </type>
          <value value="12345777"/>
        </identifier>
        <status value="finished"/>
        <class>
          <code value="inpatient"/>
        </class>
        <priority>
          <coding>
            <system value="http://terminology.hl7.org/CodeSystem/v3-ActPriority"/>
            <code value="EL"/>
            <display value="elective"/>
          </coding>
        </priority>
        <subject>
          <reference value="Patient/39089"/>
          <display value="LN3062 FN3062 MN3062"/>
        </subject>
        <participant>
          <individual>
            <reference value="Practitioner/1472"/>
          </individual>
        </participant>
        <participant>
          <individual>
            <reference value="Practitioner/1473"/>
          </individual>
        </participant>
        <participant>
          <individual>
            <reference value="Practitioner/1474"/>
          </individual>
        </participant>
        <participant>
          <individual>
            <reference value="Practitioner/1475"/>
          </individual>
        </participant>
        <period>
          <start value="2010-11-11T11:12:14.456+07:00"/>
          <end value="2010-11-11T11:12:14.456+07:00"/>
        </period>
        <reasonCode>
          <coding>
            <system value="http://snomed.info/sct"/>
            <code value="109006"/>
            <display value="Anxiety disorder of childhood OR adolescence (disorder)"/>
          </coding>
        </reasonCode>
        <hospitalization>
          <preAdmissionIdentifier>
            <use value="official"/>
            <value value="1234"/>
          </preAdmissionIdentifier>
          <admitSource>
            <coding>
              <system value="http://terminology.hl7.org/CodeSystem/admit-source"/>
              <code value="hosp-trans"/>
              <display value="Transferred from other hospital"/>
            </coding>
          </admitSource>
          <reAdmission>
            <coding>
              <userSelected value="true"/>
            </coding>
          </reAdmission>
          <dietPreference>
            <coding>
              <system value="http://terminology.hl7.org/CodeSystem/diet"/>
              <code value="vegetarian"/>
              <display value="Vegetarian"/>
            </coding>
          </dietPreference>
          <dischargeDisposition>
            <coding>
              <system value="http://terminology.hl7.org/CodeSystem/discharge-disposition"/>
              <code value="aadvice"/>
              <display value="Left against advice"/>
            </coding>
          </dischargeDisposition>
        </hospitalization>
        <location>
          <location>
            <reference value="Location/45249"/>
          </location>
          <physicalType>
            <coding>
              <system value="http://terminology.hl7.org/CodeSystem/location-physical-type"/>
              <code value="bu"/>
              <display value="Building"/>
            </coding>
          </physicalType>
        </location>
        <serviceProvider>
          <reference value="Organization/185"/>
        </serviceProvider>
      </Encounter>
    </resource>
    <search>
      <mode value="include"/>
    </search>
  </entry>
  <entry>
    <fullUrl value="http://hapi.fhir.org/baseR4/Encounter/45285"/>
    <resource>
      <Encounter>
        <id value="45285"/>
        <meta>
          <versionId value="1"/>
          <lastUpdated value="2019-10-11T09:06:45.279+00:00"/>
          <source value="#b938c5db525867f4"/>
        </meta>
        <identifier>
          <use value="official"/>
          <type>
            <coding>
              <system value="http://terminology.hl7.org/CodeSystem/v2-0203"/>
              <code value="MR"/>
              <display value="Medical record number"/>
            </coding>
          </type>
          <value value="12345777"/>
        </identifier>
        <status value="finished"/>
        <class>
          <code value="inpatient"/>
        </class>
        <priority>
          <coding>
            <system value="http://terminology.hl7.org/CodeSystem/v3-ActPriority"/>
            <code value="EL"/>
            <display value="elective"/>
          </coding>
        </priority>
        <subject>
          <reference value="Patient/39089"/>
          <display value="LN3062 FN3062 MN3062"/>
        </subject>
        <participant>
          <individual>
            <reference value="Practitioner/1472"/>
          </individual>
        </participant>
        <participant>
          <individual>
            <reference value="Practitioner/1473"/>
          </individual>
        </participant>
        <participant>
          <individual>
            <reference value="Practitioner/1474"/>
          </individual>
        </participant>
        <participant>
          <individual>
            <reference value="Practitioner/1475"/>
          </individual>
        </participant>
        <period>
          <start value="2010-11-11T11:12:14.456+07:00"/>
          <end value="2010-11-11T11:12:14.456+07:00"/>
        </period>
        <reasonCode>
          <coding>
            <system value="http://snomed.info/sct"/>
            <code value="109006"/>
            <display value="Anxiety disorder of childhood OR adolescence (disorder)"/>
          </coding>
        </reasonCode>
        <hospitalization>
          <preAdmissionIdentifier>
            <use value="official"/>
            <value value="1234"/>
          </preAdmissionIdentifier>
          <admitSource>
            <coding>
              <system value="http://terminology.hl7.org/CodeSystem/admit-source"/>
              <code value="hosp-trans"/>
              <display value="Transferred from other hospital"/>
            </coding>
          </admitSource>
          <reAdmission>
            <coding>
              <userSelected value="true"/>
            </coding>
          </reAdmission>
          <dietPreference>
            <coding>
              <system value="http://terminology.hl7.org/CodeSystem/diet"/>
              <code value="vegetarian"/>
              <display value="Vegetarian"/>
            </coding>
          </dietPreference>
          <dischargeDisposition>
            <coding>
              <system value="http://terminology.hl7.org/CodeSystem/discharge-disposition"/>
              <code value="aadvice"/>
              <display value="Left against advice"/>
            </coding>
          </dischargeDisposition>
        </hospitalization>
        <location>
          <location>
            <reference value="Location/45283"/>
          </location>
          <physicalType>
            <coding>
              <system value="http://terminology.hl7.org/CodeSystem/location-physical-type"/>
              <code value="bu"/>
              <display value="Building"/>
            </coding>
          </physicalType>
        </location>
        <serviceProvider>
          <reference value="Organization/185"/>
        </serviceProvider>
      </Encounter>
    </resource>
    <search>
      <mode value="include"/>
    </search>
  </entry>
  <entry>
    <fullUrl value="http://hapi.fhir.org/baseR4/Encounter/45317"/>
    <resource>
      <Encounter>
        <id value="45317"/>
        <meta>
          <versionId value="1"/>
          <lastUpdated value="2019-10-11T09:21:00.572+00:00"/>
          <source value="#92d0ba6ff883380b"/>
        </meta>
        <identifier>
          <use value="official"/>
          <type>
            <coding>
              <system value="http://terminology.hl7.org/CodeSystem/v2-0203"/>
              <code value="MR"/>
              <display value="Medical record number"/>
            </coding>
          </type>
          <value value="12345777"/>
        </identifier>
        <status value="finished"/>
        <class>
          <code value="inpatient"/>
        </class>
        <priority>
          <coding>
            <system value="http://terminology.hl7.org/CodeSystem/v3-ActPriority"/>
            <code value="EL"/>
            <display value="elective"/>
          </coding>
        </priority>
        <subject>
          <reference value="Patient/39089"/>
          <display value="LN3062 FN3062 MN3062"/>
        </subject>
        <participant>
          <individual>
            <reference value="Practitioner/1472"/>
          </individual>
        </participant>
        <participant>
          <individual>
            <reference value="Practitioner/1473"/>
          </individual>
        </participant>
        <participant>
          <individual>
            <reference value="Practitioner/1474"/>
          </individual>
        </participant>
        <participant>
          <individual>
            <reference value="Practitioner/1475"/>
          </individual>
        </participant>
        <period>
          <start value="2010-11-11T11:12:14.456+07:00"/>
          <end value="2010-11-11T11:12:14.456+07:00"/>
        </period>
        <reasonCode>
          <coding>
            <system value="http://snomed.info/sct"/>
            <code value="109006"/>
            <display value="Anxiety disorder of childhood OR adolescence (disorder)"/>
          </coding>
        </reasonCode>
        <hospitalization>
          <preAdmissionIdentifier>
            <use value="official"/>
            <value value="1234"/>
          </preAdmissionIdentifier>
          <admitSource>
            <coding>
              <system value="http://terminology.hl7.org/CodeSystem/admit-source"/>
              <code value="hosp-trans"/>
              <display value="Transferred from other hospital"/>
            </coding>
          </admitSource>
          <reAdmission>
            <coding>
              <userSelected value="true"/>
            </coding>
          </reAdmission>
          <dietPreference>
            <coding>
              <system value="http://terminology.hl7.org/CodeSystem/diet"/>
              <code value="vegetarian"/>
              <display value="Vegetarian"/>
            </coding>
          </dietPreference>
          <dischargeDisposition>
            <coding>
              <system value="http://terminology.hl7.org/CodeSystem/discharge-disposition"/>
              <code value="aadvice"/>
              <display value="Left against advice"/>
            </coding>
          </dischargeDisposition>
        </hospitalization>
        <location>
          <location>
            <reference value="Location/45315"/>
          </location>
          <physicalType>
            <coding>
              <system value="http://terminology.hl7.org/CodeSystem/location-physical-type"/>
              <code value="bu"/>
              <display value="Building"/>
            </coding>
          </physicalType>
        </location>
        <serviceProvider>
          <reference value="Organization/185"/>
        </serviceProvider>
      </Encounter>
    </resource>
    <search>
      <mode value="include"/>
    </search>
  </entry>
  <entry>
    <fullUrl value="http://hapi.fhir.org/baseR4/Encounter/45349"/>
    <resource>
      <Encounter>
        <id value="45349"/>
        <meta>
          <versionId value="1"/>
          <lastUpdated value="2019-10-11T09:35:03.452+00:00"/>
          <source value="#ea23c7981cf245f5"/>
        </meta>
        <identifier>
          <use value="official"/>
          <type>
            <coding>
              <system value="http://terminology.hl7.org/CodeSystem/v2-0203"/>
              <code value="MR"/>
              <display value="Medical record number"/>
            </coding>
          </type>
          <value value="12345777"/>
        </identifier>
        <status value="finished"/>
        <class>
          <code value="inpatient"/>
        </class>
        <priority>
          <coding>
            <system value="http://terminology.hl7.org/CodeSystem/v3-ActPriority"/>
            <code value="EL"/>
            <display value="elective"/>
          </coding>
        </priority>
        <subject>
          <reference value="Patient/39089"/>
          <display value="LN3062 FN3062 MN3062"/>
        </subject>
        <participant>
          <individual>
            <reference value="Practitioner/1472"/>
          </individual>
        </participant>
        <participant>
          <individual>
            <reference value="Practitioner/1473"/>
          </individual>
        </participant>
        <participant>
          <individual>
            <reference value="Practitioner/1474"/>
          </individual>
        </participant>
        <participant>
          <individual>
            <reference value="Practitioner/1475"/>
          </individual>
        </participant>
        <period>
          <start value="2010-11-11T11:12:14.456+07:00"/>
          <end value="2010-11-11T11:12:14.456+07:00"/>
        </period>
        <reasonCode>
          <coding>
            <system value="http://snomed.info/sct"/>
            <code value="109006"/>
            <display value="Anxiety disorder of childhood OR adolescence (disorder)"/>
          </coding>
        </reasonCode>
        <hospitalization>
          <preAdmissionIdentifier>
            <use value="official"/>
            <value value="1234"/>
          </preAdmissionIdentifier>
          <admitSource>
            <coding>
              <system value="http://terminology.hl7.org/CodeSystem/admit-source"/>
              <code value="hosp-trans"/>
              <display value="Transferred from other hospital"/>
            </coding>
          </admitSource>
          <reAdmission>
            <coding>
              <userSelected value="true"/>
            </coding>
          </reAdmission>
          <dietPreference>
            <coding>
              <system value="http://terminology.hl7.org/CodeSystem/diet"/>
              <code value="vegetarian"/>
              <display value="Vegetarian"/>
            </coding>
          </dietPreference>
          <dischargeDisposition>
            <coding>
              <system value="http://terminology.hl7.org/CodeSystem/discharge-disposition"/>
              <code value="aadvice"/>
              <display value="Left against advice"/>
            </coding>
          </dischargeDisposition>
        </hospitalization>
        <location>
          <location>
            <reference value="Location/45347"/>
          </location>
          <physicalType>
            <coding>
              <system value="http://terminology.hl7.org/CodeSystem/location-physical-type"/>
              <code value="bu"/>
              <display value="Building"/>
            </coding>
          </physicalType>
        </location>
        <serviceProvider>
          <reference value="Organization/185"/>
        </serviceProvider>
      </Encounter>
    </resource>
    <search>
      <mode value="include"/>
    </search>
  </entry>
  <entry>
    <fullUrl value="http://hapi.fhir.org/baseR4/Encounter/45381"/>
    <resource>
      <Encounter>
        <id value="45381"/>
        <meta>
          <versionId value="1"/>
          <lastUpdated value="2019-10-11T09:51:03.981+00:00"/>
          <source value="#9219f6e7acdf6d9f"/>
        </meta>
        <identifier>
          <use value="official"/>
          <type>
            <coding>
              <system value="http://terminology.hl7.org/CodeSystem/v2-0203"/>
              <code value="MR"/>
              <display value="Medical record number"/>
            </coding>
          </type>
          <value value="12345777"/>
        </identifier>
        <status value="finished"/>
        <class>
          <code value="inpatient"/>
        </class>
        <priority>
          <coding>
            <system value="http://terminology.hl7.org/CodeSystem/v3-ActPriority"/>
            <code value="EL"/>
            <display value="elective"/>
          </coding>
        </priority>
        <subject>
          <reference value="Patient/39089"/>
          <display value="LN3062 FN3062 MN3062"/>
        </subject>
        <participant>
          <individual>
            <reference value="Practitioner/1472"/>
          </individual>
        </participant>
        <participant>
          <individual>
            <reference value="Practitioner/1473"/>
          </individual>
        </participant>
        <participant>
          <individual>
            <reference value="Practitioner/1474"/>
          </individual>
        </participant>
        <participant>
          <individual>
            <reference value="Practitioner/1475"/>
          </individual>
        </participant>
        <period>
          <start value="2010-11-11T11:12:14.456+07:00"/>
          <end value="2010-11-11T11:12:14.456+07:00"/>
        </period>
        <reasonCode>
          <coding>
            <system value="http://snomed.info/sct"/>
            <code value="109006"/>
            <display value="Anxiety disorder of childhood OR adolescence (disorder)"/>
          </coding>
        </reasonCode>
        <hospitalization>
          <preAdmissionIdentifier>
            <use value="official"/>
            <value value="1234"/>
          </preAdmissionIdentifier>
          <admitSource>
            <coding>
              <system value="http://terminology.hl7.org/CodeSystem/admit-source"/>
              <code value="hosp-trans"/>
              <display value="Transferred from other hospital"/>
            </coding>
          </admitSource>
          <reAdmission>
            <coding>
              <userSelected value="true"/>
            </coding>
          </reAdmission>
          <dietPreference>
            <coding>
              <system value="http://terminology.hl7.org/CodeSystem/diet"/>
              <code value="vegetarian"/>
              <display value="Vegetarian"/>
            </coding>
          </dietPreference>
          <dischargeDisposition>
            <coding>
              <system value="http://terminology.hl7.org/CodeSystem/discharge-disposition"/>
              <code value="aadvice"/>
              <display value="Left against advice"/>
            </coding>
          </dischargeDisposition>
        </hospitalization>
        <location>
          <location>
            <reference value="Location/45379"/>
          </location>
          <physicalType>
            <coding>
              <system value="http://terminology.hl7.org/CodeSystem/location-physical-type"/>
              <code value="bu"/>
              <display value="Building"/>
            </coding>
          </physicalType>
        </location>
        <serviceProvider>
          <reference value="Organization/185"/>
        </serviceProvider>
      </Encounter>
    </resource>
    <search>
      <mode value="include"/>
    </search>
  </entry>
  <entry>
    <fullUrl value="http://hapi.fhir.org/baseR4/Patient/53254"/>
    <resource>
      <Patient>
        <id value="53254"/>
        <meta>
          <versionId value="1"/>
          <lastUpdated value="2019-11-01T18:21:32.312+00:00"/>
          <source value="#jkcy2CmYvZIMfcnV"/>
        </meta>
        <text>
          <status value="generated"/>
          <div>
            <div class="hapiHeaderText">James 
                     <b>SMITH </b>
                  </div>
            <table class="hapiPropertyTable">
              <tbody>
                <tr>
                  <td>Identifier</td>
                  <td>110107073916280</td>
                </tr>
                <tr>
                  <td>Address</td>
                  <td>
                    <span>1234 Six Forks </span>
                    <br/>
                    <span>Cary </span>
                    <span>NC </span>
                    <span>US </span>
                  </td>
                </tr>
                <tr>
                  <td>Date of birth</td>
                  <td>
                    <span>01 September 1965</span>
                  </td>
                </tr>
              </tbody>
            </table>
          </div>
        </text>
        <identifier>
          <use value="usual"/>
          <system value="1.3.6.1.4.1.22812.3.99930.3"/>
          <value value="110107073916280"/>
        </identifier>
        <identifier>
          <use value="official"/>
          <system value="https://www.edifecs.com/fhir/patient/identifier"/>
          <value value="74306e5e90359c6574c90a69b2e9325c1106c44a22d9733a67eaa53412bb3251"/>
        </identifier>
        <name>
          <family value="Smith"/>
          <given value="James"/>
        </name>
        <telecom>
          <value value="tel:+1-(919)854-3333"/>
          <use value="home"/>
        </telecom>
        <telecom>
          <value value="tel:+1-(919)854-4444"/>
          <use value="home"/>
        </telecom>
        <gender value="male"/>
        <birthDate value="1965-09-01"/>
        <address>
          <line value="1234 Six Forks"/>
          <city value="Cary"/>
          <state value="NC"/>
          <postalCode value="27513"/>
          <country value="US"/>
        </address>
        <managingOrganization>
          <reference value="Organization/53256"/>
          <type value="Organization"/>
        </managingOrganization>
      </Patient>
    </resource>
    <search>
      <mode value="include"/>
    </search>
  </entry>
  <entry>
    <fullUrl value="http://hapi.fhir.org/baseR4/Encounter/45486"/>
    <resource>
      <Encounter>
        <id value="45486"/>
        <meta>
          <versionId value="1"/>
          <lastUpdated value="2019-10-11T11:23:15.413+00:00"/>
          <source value="#b4ca5d0ed638c947"/>
        </meta>
        <identifier>
          <use value="official"/>
          <type>
            <coding>
              <system value="http://terminology.hl7.org/CodeSystem/v2-0203"/>
              <code value="MR"/>
              <display value="Medical record number"/>
            </coding>
          </type>
          <value value="12345777"/>
        </identifier>
        <status value="finished"/>
        <class>
          <code value="inpatient"/>
        </class>
        <priority>
          <coding>
            <system value="http://terminology.hl7.org/CodeSystem/v3-ActPriority"/>
            <code value="EL"/>
            <display value="elective"/>
          </coding>
        </priority>
        <subject>
          <reference value="Patient/39089"/>
          <display value="LN3062 FN3062 MN3062"/>
        </subject>
        <participant>
          <individual>
            <reference value="Practitioner/1472"/>
          </individual>
        </participant>
        <participant>
          <individual>
            <reference value="Practitioner/1473"/>
          </individual>
        </participant>
        <participant>
          <individual>
            <reference value="Practitioner/1474"/>
          </individual>
        </participant>
        <participant>
          <individual>
            <reference value="Practitioner/1475"/>
          </individual>
        </participant>
        <period>
          <start value="2010-11-11T11:12:14.456+07:00"/>
          <end value="2010-11-11T11:12:14.456+07:00"/>
        </period>
        <reasonCode>
          <coding>
            <system value="http://snomed.info/sct"/>
            <code value="109006"/>
            <display value="Anxiety disorder of childhood OR adolescence (disorder)"/>
          </coding>
        </reasonCode>
        <hospitalization>
          <preAdmissionIdentifier>
            <use value="official"/>
            <value value="1234"/>
          </preAdmissionIdentifier>
          <admitSource>
            <coding>
              <system value="http://terminology.hl7.org/CodeSystem/admit-source"/>
              <code value="hosp-trans"/>
              <display value="Transferred from other hospital"/>
            </coding>
          </admitSource>
          <reAdmission>
            <coding>
              <userSelected value="true"/>
            </coding>
          </reAdmission>
          <dietPreference>
            <coding>
              <system value="http://terminology.hl7.org/CodeSystem/diet"/>
              <code value="vegetarian"/>
              <display value="Vegetarian"/>
            </coding>
          </dietPreference>
          <dischargeDisposition>
            <coding>
              <system value="http://terminology.hl7.org/CodeSystem/discharge-disposition"/>
              <code value="aadvice"/>
              <display value="Left against advice"/>
            </coding>
          </dischargeDisposition>
        </hospitalization>
        <location>
          <location>
            <reference value="Location/45484"/>
          </location>
          <physicalType>
            <coding>
              <system value="http://terminology.hl7.org/CodeSystem/location-physical-type"/>
              <code value="bu"/>
              <display value="Building"/>
            </coding>
          </physicalType>
        </location>
        <serviceProvider>
          <reference value="Organization/185"/>
        </serviceProvider>
      </Encounter>
    </resource>
    <search>
      <mode value="include"/>
    </search>
  </entry>
  <entry>
    <fullUrl value="http://hapi.fhir.org/baseR4/Encounter/45519"/>
    <resource>
      <Encounter>
        <id value="45519"/>
        <meta>
          <versionId value="1"/>
          <lastUpdated value="2019-10-11T12:03:15.055+00:00"/>
          <source value="#16132e01596da173"/>
        </meta>
        <identifier>
          <use value="official"/>
          <type>
            <coding>
              <system value="http://terminology.hl7.org/CodeSystem/v2-0203"/>
              <code value="MR"/>
              <display value="Medical record number"/>
            </coding>
          </type>
          <value value="12345777"/>
        </identifier>
        <status value="finished"/>
        <class>
          <code value="inpatient"/>
        </class>
        <priority>
          <coding>
            <system value="http://terminology.hl7.org/CodeSystem/v3-ActPriority"/>
            <code value="EL"/>
            <display value="elective"/>
          </coding>
        </priority>
        <subject>
          <reference value="Patient/39089"/>
          <display value="LN3062 FN3062 MN3062"/>
        </subject>
        <participant>
          <individual>
            <reference value="Practitioner/1472"/>
          </individual>
        </participant>
        <participant>
          <individual>
            <reference value="Practitioner/1473"/>
          </individual>
        </participant>
        <participant>
          <individual>
            <reference value="Practitioner/1474"/>
          </individual>
        </participant>
        <participant>
          <individual>
            <reference value="Practitioner/1475"/>
          </individual>
        </participant>
        <period>
          <start value="2010-11-11T11:12:14.456+07:00"/>
          <end value="2010-11-11T11:12:14.456+07:00"/>
        </period>
        <reasonCode>
          <coding>
            <system value="http://snomed.info/sct"/>
            <code value="109006"/>
            <display value="Anxiety disorder of childhood OR adolescence (disorder)"/>
          </coding>
        </reasonCode>
        <hospitalization>
          <preAdmissionIdentifier>
            <use value="official"/>
            <value value="1234"/>
          </preAdmissionIdentifier>
          <admitSource>
            <coding>
              <system value="http://terminology.hl7.org/CodeSystem/admit-source"/>
              <code value="hosp-trans"/>
              <display value="Transferred from other hospital"/>
            </coding>
          </admitSource>
          <reAdmission>
            <coding>
              <userSelected value="true"/>
            </coding>
          </reAdmission>
          <dietPreference>
            <coding>
              <system value="http://terminology.hl7.org/CodeSystem/diet"/>
              <code value="vegetarian"/>
              <display value="Vegetarian"/>
            </coding>
          </dietPreference>
          <dischargeDisposition>
            <coding>
              <system value="http://terminology.hl7.org/CodeSystem/discharge-disposition"/>
              <code value="aadvice"/>
              <display value="Left against advice"/>
            </coding>
          </dischargeDisposition>
        </hospitalization>
        <location>
          <location>
            <reference value="Location/45517"/>
          </location>
          <physicalType>
            <coding>
              <system value="http://terminology.hl7.org/CodeSystem/location-physical-type"/>
              <code value="bu"/>
              <display value="Building"/>
            </coding>
          </physicalType>
        </location>
        <serviceProvider>
          <reference value="Organization/185"/>
        </serviceProvider>
      </Encounter>
    </resource>
    <search>
      <mode value="include"/>
    </search>
  </entry>
  <entry>
    <fullUrl value="http://hapi.fhir.org/baseR4/Patient/39089"/>
    <resource>
      <Patient>
        <id value="39089"/>
        <meta>
          <versionId value="1"/>
          <lastUpdated value="2019-10-01T10:53:20.578+00:00"/>
          <source value="#65be93fc3146e3e8"/>
        </meta>
        <text>
          <status value="generated"/>
          <div>
            <div class="hapiHeaderText">FN3062 MN3062 
                     <b>LN3062 </b>
                  </div>
            <table class="hapiPropertyTable">
              <tbody>
                <tr>
                  <td>Identifier</td>
                  <td>shwetha1</td>
                </tr>
                <tr>
                  <td>Address</td>
                  <td>
                    <span>Street comp1 comp2 </span>
                    <br/>
                    <span>AddLine2 </span>
                    <br/>
                    <span>Seattle </span>
                    <span>WA </span>
                    <span>USA </span>
                  </td>
                </tr>
                <tr>
                  <td>Date of birth</td>
                  <td>
                    <span>10 October 2001</span>
                  </td>
                </tr>
              </tbody>
            </table>
          </div>
        </text>
        <identifier>
          <use value="usual"/>
          <type>
            <coding>
              <system value="http://terminology.hl7.org/CodeSystem/v2-0203"/>
              <code value="MR"/>
              <display value="Medical record number"/>
            </coding>
          </type>
          <system value="http://hl7.org/fhir/identifier-type"/>
          <value value="shwetha1"/>
        </identifier>
        <identifier>
          <use value="official"/>
          <type>
            <coding>
              <system value="http://terminology.hl7.org/CodeSystem/v2-0203"/>
              <code value="PLAC"/>
              <display value="Placer Identifier"/>
            </coding>
          </type>
          <system value="http://hl7.org/fhir/identifier-type"/>
          <value value="23062"/>
        </identifier>
        <identifier>
          <use value="official"/>
          <type>
            <coding>
              <system value="http://terminology.hl7.org/CodeSystem/v2-0203"/>
              <code value="PRN"/>
              <display value="Provider number"/>
            </coding>
          </type>
          <system value="http://hl7.org/fhir/sid/us-ssn"/>
          <value value="111222333"/>
        </identifier>
        <identifier>
          <use value="secondary"/>
          <type>
            <coding>
              <system value="http://terminology.hl7.org/CodeSystem/v2-0203"/>
              <code value="SNO"/>
              <display value="Serial Number"/>
            </coding>
          </type>
          <system value="http://hl7.org/fhir/identifier-type"/>
          <value value="2333"/>
        </identifier>
        <identifier>
          <use value="official"/>
          <type>
            <coding>
              <system value="http://terminology.hl7.org/CodeSystem/v2-0203"/>
              <code value="FILL"/>
              <display value="Filler Identifier"/>
            </coding>
          </type>
          <system value="https://radboud.nl/id"/>
          <value value="11111111111"/>
        </identifier>
        <identifier>
          <use value="official"/>
          <type>
            <coding>
              <system value="http://terminology.hl7.org/CodeSystem/v2-0203"/>
              <code value="DL"/>
              <display value="Driver's license number"/>
            </coding>
          </type>
          <system value="https://radboud.nl/identifiers/PatientIdentifier"/>
          <value value="33333333333"/>
        </identifier>
        <name>
          <use value="usual"/>
          <family value="LN3062"/>
          <given value="FN3062"/>
          <given value="MN3062"/>
        </name>
        <name>
          <use value="usual"/>
          <family value="Test"/>
          <given value="Test"/>
        </name>
        <telecom>
          <system value="phone"/>
          <value value="123-456-1111"/>
          <use value="home"/>
        </telecom>
        <telecom>
          <system value="phone"/>
          <value value="098-765-1111"/>
          <use value="work"/>
        </telecom>
        <telecom>
          <system value="email"/>
          <use value="home"/>
        </telecom>
        <telecom>
          <system value="email"/>
          <use value="work"/>
        </telecom>
        <gender value="male"/>
        <birthDate value="2001-10-10"/>
        <deceasedDateTime value="2010-11-11T11:12:14.000+05:30"/>
        <address>
          <use value="home"/>
          <line value="Street comp1 comp2"/>
          <line value="AddLine2"/>
          <city value="Seattle"/>
          <state value="WA"/>
          <postalCode value="98052"/>
          <country value="USA"/>
        </address>
        <maritalStatus>
          <coding>
            <system value="http://terminology.hl7.org/CodeSystem/v3-MaritalStatus"/>
            <code value="M"/>
            <display value="Married"/>
          </coding>
        </maritalStatus>
        <multipleBirthInteger value="2"/>
        <contact>
          <relationship>
            <coding>
              <system value="http://terminology.hl7.org/CodeSystem/v2-0131"/>
              <code value="N"/>
              <display value="Next-of-Kin"/>
            </coding>
          </relationship>
          <name>
            <family value="Jones"/>
            <given value="Sally"/>
            <given value="Andy"/>
          </name>
          <telecom>
            <system value="phone"/>
            <value value="123-456-1111"/>
            <use value="home"/>
          </telecom>
          <telecom>
            <system value="phone"/>
            <value value="321-654-2222"/>
            <use value="work"/>
          </telecom>
          <address>
            <use value="home"/>
            <line value="Street comp1 comp2"/>
            <line value="AddLine2"/>
            <city value="Seattle"/>
            <state value="WA"/>
            <postalCode value="98052"/>
            <country value="USA"/>
          </address>
          <gender value="female"/>
          <organization>
            <reference value="Organization/185"/>
          </organization>
        </contact>
        <communication>
          <language>
            <coding>
              <system value="urn:ietf:bcp:47"/>
              <code value="en"/>
              <display value="English"/>
            </coding>
          </language>
        </communication>
        <managingOrganization>
          <reference value="Organization/185"/>
        </managingOrganization>
      </Patient>
    </resource>
    <search>
      <mode value="include"/>
    </search>
  </entry>
  <entry>
    <fullUrl value="http://hapi.fhir.org/baseR4/Encounter/45235"/>
    <resource>
      <Encounter>
        <id value="45235"/>
        <meta>
          <versionId value="1"/>
          <lastUpdated value="2019-10-11T05:28:04.442+00:00"/>
          <source value="#fca992735620d1d6"/>
        </meta>
        <identifier>
          <use value="official"/>
          <type>
            <coding>
              <system value="http://terminology.hl7.org/CodeSystem/v2-0203"/>
              <code value="MR"/>
              <display value="Medical record number"/>
            </coding>
          </type>
          <value value="12345777"/>
        </identifier>
        <status value="finished"/>
        <class>
          <code value="inpatient"/>
        </class>
        <priority>
          <coding>
            <system value="http://terminology.hl7.org/CodeSystem/v3-ActPriority"/>
            <code value="EL"/>
            <display value="elective"/>
          </coding>
        </priority>
        <subject>
          <reference value="Patient/39089"/>
          <display value="LN3062 FN3062 MN3062"/>
        </subject>
        <participant>
          <individual>
            <reference value="Practitioner/1472"/>
          </individual>
        </participant>
        <participant>
          <individual>
            <reference value="Practitioner/1473"/>
          </individual>
        </participant>
        <participant>
          <individual>
            <reference value="Practitioner/1474"/>
          </individual>
        </participant>
        <participant>
          <individual>
            <reference value="Practitioner/1475"/>
          </individual>
        </participant>
        <period>
          <start value="2010-11-11T11:12:14.456+07:00"/>
          <end value="2010-11-11T11:12:14.456+07:00"/>
        </period>
        <reasonCode>
          <coding>
            <system value="http://snomed.info/sct"/>
            <code value="109006"/>
            <display value="Anxiety disorder of childhood OR adolescence (disorder)"/>
          </coding>
        </reasonCode>
        <hospitalization>
          <preAdmissionIdentifier>
            <use value="official"/>
            <value value="1234"/>
          </preAdmissionIdentifier>
          <admitSource>
            <coding>
              <system value="http://terminology.hl7.org/CodeSystem/admit-source"/>
              <code value="hosp-trans"/>
              <display value="Transferred from other hospital"/>
            </coding>
          </admitSource>
          <reAdmission>
            <coding>
              <userSelected value="true"/>
            </coding>
          </reAdmission>
          <dietPreference>
            <coding>
              <system value="http://terminology.hl7.org/CodeSystem/diet"/>
              <code value="vegetarian"/>
              <display value="Vegetarian"/>
            </coding>
          </dietPreference>
          <dischargeDisposition>
            <coding>
              <system value="http://terminology.hl7.org/CodeSystem/discharge-disposition"/>
              <code value="aadvice"/>
              <display value="Left against advice"/>
            </coding>
          </dischargeDisposition>
        </hospitalization>
        <location>
          <location>
            <reference value="Location/45233"/>
          </location>
          <physicalType>
            <coding>
              <system value="http://terminology.hl7.org/CodeSystem/location-physical-type"/>
              <code value="bu"/>
              <display value="Building"/>
            </coding>
          </physicalType>
        </location>
        <serviceProvider>
          <reference value="Organization/185"/>
        </serviceProvider>
      </Encounter>
    </resource>
    <search>
      <mode value="include"/>
    </search>
  </entry>
  <entry>
    <fullUrl value="http://hapi.fhir.org/baseR4/Encounter/45301"/>
    <resource>
      <Encounter>
        <id value="45301"/>
        <meta>
          <versionId value="1"/>
          <lastUpdated value="2019-10-11T09:09:37.028+00:00"/>
          <source value="#458abe564d424656"/>
        </meta>
        <identifier>
          <use value="official"/>
          <type>
            <coding>
              <system value="http://terminology.hl7.org/CodeSystem/v2-0203"/>
              <code value="MR"/>
              <display value="Medical record number"/>
            </coding>
          </type>
          <value value="12345777"/>
        </identifier>
        <status value="finished"/>
        <class>
          <code value="inpatient"/>
        </class>
        <priority>
          <coding>
            <system value="http://terminology.hl7.org/CodeSystem/v3-ActPriority"/>
            <code value="EL"/>
            <display value="elective"/>
          </coding>
        </priority>
        <subject>
          <reference value="Patient/39089"/>
          <display value="LN3062 FN3062 MN3062"/>
        </subject>
        <participant>
          <individual>
            <reference value="Practitioner/1472"/>
          </individual>
        </participant>
        <participant>
          <individual>
            <reference value="Practitioner/1473"/>
          </individual>
        </participant>
        <participant>
          <individual>
            <reference value="Practitioner/1474"/>
          </individual>
        </participant>
        <participant>
          <individual>
            <reference value="Practitioner/1475"/>
          </individual>
        </participant>
        <period>
          <start value="2010-11-11T11:12:14.456+07:00"/>
          <end value="2010-11-11T11:12:14.456+07:00"/>
        </period>
        <reasonCode>
          <coding>
            <system value="http://snomed.info/sct"/>
            <code value="109006"/>
            <display value="Anxiety disorder of childhood OR adolescence (disorder)"/>
          </coding>
        </reasonCode>
        <hospitalization>
          <preAdmissionIdentifier>
            <use value="official"/>
            <value value="1234"/>
          </preAdmissionIdentifier>
          <admitSource>
            <coding>
              <system value="http://terminology.hl7.org/CodeSystem/admit-source"/>
              <code value="hosp-trans"/>
              <display value="Transferred from other hospital"/>
            </coding>
          </admitSource>
          <reAdmission>
            <coding>
              <userSelected value="true"/>
            </coding>
          </reAdmission>
          <dietPreference>
            <coding>
              <system value="http://terminology.hl7.org/CodeSystem/diet"/>
              <code value="vegetarian"/>
              <display value="Vegetarian"/>
            </coding>
          </dietPreference>
          <dischargeDisposition>
            <coding>
              <system value="http://terminology.hl7.org/CodeSystem/discharge-disposition"/>
              <code value="aadvice"/>
              <display value="Left against advice"/>
            </coding>
          </dischargeDisposition>
        </hospitalization>
        <location>
          <location>
            <reference value="Location/45299"/>
          </location>
          <physicalType>
            <coding>
              <system value="http://terminology.hl7.org/CodeSystem/location-physical-type"/>
              <code value="bu"/>
              <display value="Building"/>
            </coding>
          </physicalType>
        </location>
        <serviceProvider>
          <reference value="Organization/185"/>
        </serviceProvider>
      </Encounter>
    </resource>
    <search>
      <mode value="include"/>
    </search>
  </entry>
  <entry>
    <fullUrl value="http://hapi.fhir.org/baseR4/Encounter/45333"/>
    <resource>
      <Encounter>
        <id value="45333"/>
        <meta>
          <versionId value="1"/>
          <lastUpdated value="2019-10-11T09:23:34.393+00:00"/>
          <source value="#9f92afff97d1c73f"/>
        </meta>
        <identifier>
          <use value="official"/>
          <type>
            <coding>
              <system value="http://terminology.hl7.org/CodeSystem/v2-0203"/>
              <code value="MR"/>
              <display value="Medical record number"/>
            </coding>
          </type>
          <value value="12345777"/>
        </identifier>
        <status value="finished"/>
        <class>
          <code value="inpatient"/>
        </class>
        <priority>
          <coding>
            <system value="http://terminology.hl7.org/CodeSystem/v3-ActPriority"/>
            <code value="EL"/>
            <display value="elective"/>
          </coding>
        </priority>
        <subject>
          <reference value="Patient/39089"/>
          <display value="LN3062 FN3062 MN3062"/>
        </subject>
        <participant>
          <individual>
            <reference value="Practitioner/1472"/>
          </individual>
        </participant>
        <participant>
          <individual>
            <reference value="Practitioner/1473"/>
          </individual>
        </participant>
        <participant>
          <individual>
            <reference value="Practitioner/1474"/>
          </individual>
        </participant>
        <participant>
          <individual>
            <reference value="Practitioner/1475"/>
          </individual>
        </participant>
        <period>
          <start value="2010-11-11T11:12:14.456+07:00"/>
          <end value="2010-11-11T11:12:14.456+07:00"/>
        </period>
        <reasonCode>
          <coding>
            <system value="http://snomed.info/sct"/>
            <code value="109006"/>
            <display value="Anxiety disorder of childhood OR adolescence (disorder)"/>
          </coding>
        </reasonCode>
        <hospitalization>
          <preAdmissionIdentifier>
            <use value="official"/>
            <value value="1234"/>
          </preAdmissionIdentifier>
          <admitSource>
            <coding>
              <system value="http://terminology.hl7.org/CodeSystem/admit-source"/>
              <code value="hosp-trans"/>
              <display value="Transferred from other hospital"/>
            </coding>
          </admitSource>
          <reAdmission>
            <coding>
              <userSelected value="true"/>
            </coding>
          </reAdmission>
          <dietPreference>
            <coding>
              <system value="http://terminology.hl7.org/CodeSystem/diet"/>
              <code value="vegetarian"/>
              <display value="Vegetarian"/>
            </coding>
          </dietPreference>
          <dischargeDisposition>
            <coding>
              <system value="http://terminology.hl7.org/CodeSystem/discharge-disposition"/>
              <code value="aadvice"/>
              <display value="Left against advice"/>
            </coding>
          </dischargeDisposition>
        </hospitalization>
        <location>
          <location>
            <reference value="Location/45331"/>
          </location>
          <physicalType>
            <coding>
              <system value="http://terminology.hl7.org/CodeSystem/location-physical-type"/>
              <code value="bu"/>
              <display value="Building"/>
            </coding>
          </physicalType>
        </location>
        <serviceProvider>
          <reference value="Organization/185"/>
        </serviceProvider>
      </Encounter>
    </resource>
    <search>
      <mode value="include"/>
    </search>
  </entry>
  <entry>
    <fullUrl value="http://hapi.fhir.org/baseR4/Encounter/45365"/>
    <resource>
      <Encounter>
        <id value="45365"/>
        <meta>
          <versionId value="1"/>
          <lastUpdated value="2019-10-11T09:40:23.971+00:00"/>
          <source value="#137562e0b72bde78"/>
        </meta>
        <identifier>
          <use value="official"/>
          <type>
            <coding>
              <system value="http://terminology.hl7.org/CodeSystem/v2-0203"/>
              <code value="MR"/>
              <display value="Medical record number"/>
            </coding>
          </type>
          <value value="12345777"/>
        </identifier>
        <status value="finished"/>
        <class>
          <code value="inpatient"/>
        </class>
        <priority>
          <coding>
            <system value="http://terminology.hl7.org/CodeSystem/v3-ActPriority"/>
            <code value="EL"/>
            <display value="elective"/>
          </coding>
        </priority>
        <subject>
          <reference value="Patient/39089"/>
          <display value="LN3062 FN3062 MN3062"/>
        </subject>
        <participant>
          <individual>
            <reference value="Practitioner/1472"/>
          </individual>
        </participant>
        <participant>
          <individual>
            <reference value="Practitioner/1473"/>
          </individual>
        </participant>
        <participant>
          <individual>
            <reference value="Practitioner/1474"/>
          </individual>
        </participant>
        <participant>
          <individual>
            <reference value="Practitioner/1475"/>
          </individual>
        </participant>
        <period>
          <start value="2010-11-11T11:12:14.456+07:00"/>
          <end value="2010-11-11T11:12:14.456+07:00"/>
        </period>
        <reasonCode>
          <coding>
            <system value="http://snomed.info/sct"/>
            <code value="109006"/>
            <display value="Anxiety disorder of childhood OR adolescence (disorder)"/>
          </coding>
        </reasonCode>
        <hospitalization>
          <preAdmissionIdentifier>
            <use value="official"/>
            <value value="1234"/>
          </preAdmissionIdentifier>
          <admitSource>
            <coding>
              <system value="http://terminology.hl7.org/CodeSystem/admit-source"/>
              <code value="hosp-trans"/>
              <display value="Transferred from other hospital"/>
            </coding>
          </admitSource>
          <reAdmission>
            <coding>
              <userSelected value="true"/>
            </coding>
          </reAdmission>
          <dietPreference>
            <coding>
              <system value="http://terminology.hl7.org/CodeSystem/diet"/>
              <code value="vegetarian"/>
              <display value="Vegetarian"/>
            </coding>
          </dietPreference>
          <dischargeDisposition>
            <coding>
              <system value="http://terminology.hl7.org/CodeSystem/discharge-disposition"/>
              <code value="aadvice"/>
              <display value="Left against advice"/>
            </coding>
          </dischargeDisposition>
        </hospitalization>
        <location>
          <location>
            <reference value="Location/45363"/>
          </location>
          <physicalType>
            <coding>
              <system value="http://terminology.hl7.org/CodeSystem/location-physical-type"/>
              <code value="bu"/>
              <display value="Building"/>
            </coding>
          </physicalType>
        </location>
        <serviceProvider>
          <reference value="Organization/185"/>
        </serviceProvider>
      </Encounter>
    </resource>
    <search>
      <mode value="include"/>
    </search>
  </entry>
  <entry>
    <fullUrl value="http://hapi.fhir.org/baseR4/Encounter/45433"/>
    <resource>
      <Encounter>
        <id value="45433"/>
        <meta>
          <versionId value="1"/>
          <lastUpdated value="2019-10-11T10:04:31.552+00:00"/>
          <source value="#5d33289d59dce5d8"/>
        </meta>
        <identifier>
          <use value="official"/>
          <type>
            <coding>
              <system value="http://terminology.hl7.org/CodeSystem/v2-0203"/>
              <code value="MR"/>
              <display value="Medical record number"/>
            </coding>
          </type>
          <value value="12345777"/>
        </identifier>
        <status value="finished"/>
        <class>
          <code value="inpatient"/>
        </class>
        <priority>
          <coding>
            <system value="http://terminology.hl7.org/CodeSystem/v3-ActPriority"/>
            <code value="EL"/>
            <display value="elective"/>
          </coding>
        </priority>
        <subject>
          <reference value="Patient/39089"/>
          <display value="LN3062 FN3062 MN3062"/>
        </subject>
        <participant>
          <individual>
            <reference value="Practitioner/1472"/>
          </individual>
        </participant>
        <participant>
          <individual>
            <reference value="Practitioner/1473"/>
          </individual>
        </participant>
        <participant>
          <individual>
            <reference value="Practitioner/1474"/>
          </individual>
        </participant>
        <participant>
          <individual>
            <reference value="Practitioner/1475"/>
          </individual>
        </participant>
        <period>
          <start value="2010-11-11T11:12:14.456+07:00"/>
          <end value="2010-11-11T11:12:14.456+07:00"/>
        </period>
        <reasonCode>
          <coding>
            <system value="http://snomed.info/sct"/>
            <code value="109006"/>
            <display value="Anxiety disorder of childhood OR adolescence (disorder)"/>
          </coding>
        </reasonCode>
        <hospitalization>
          <preAdmissionIdentifier>
            <use value="official"/>
            <value value="1234"/>
          </preAdmissionIdentifier>
          <admitSource>
            <coding>
              <system value="http://terminology.hl7.org/CodeSystem/admit-source"/>
              <code value="hosp-trans"/>
              <display value="Transferred from other hospital"/>
            </coding>
          </admitSource>
          <reAdmission>
            <coding>
              <userSelected value="true"/>
            </coding>
          </reAdmission>
          <dietPreference>
            <coding>
              <system value="http://terminology.hl7.org/CodeSystem/diet"/>
              <code value="vegetarian"/>
              <display value="Vegetarian"/>
            </coding>
          </dietPreference>
          <dischargeDisposition>
            <coding>
              <system value="http://terminology.hl7.org/CodeSystem/discharge-disposition"/>
              <code value="aadvice"/>
              <display value="Left against advice"/>
            </coding>
          </dischargeDisposition>
        </hospitalization>
        <location>
          <location>
            <reference value="Location/45431"/>
          </location>
          <physicalType>
            <coding>
              <system value="http://terminology.hl7.org/CodeSystem/location-physical-type"/>
              <code value="bu"/>
              <display value="Building"/>
            </coding>
          </physicalType>
        </location>
        <serviceProvider>
          <reference value="Organization/185"/>
        </serviceProvider>
      </Encounter>
    </resource>
    <search>
      <mode value="include"/>
    </search>
  </entry>
  <entry>
    <fullUrl value="http://hapi.fhir.org/baseR4/Patient/53373"/>
    <resource>
      <Patient>
        <id value="53373"/>
        <meta>
          <versionId value="1"/>
          <lastUpdated value="2019-11-01T21:53:29.077+00:00"/>
          <source value="#1l3hYmrDBOUuDZ2f"/>
        </meta>
        <text>
          <status value="generated"/>
          <div>
            <div class="hapiHeaderText">James 
                     <b>BROWN-SMITH </b>
                  </div>
            <table class="hapiPropertyTable">
              <tbody>
                <tr>
                  <td>Identifier</td>
                  <td>110107073916280</td>
                </tr>
                <tr>
                  <td>Address</td>
                  <td>
                    <span>1234 Six Forks </span>
                    <br/>
                    <span>Cary </span>
                    <span>NC </span>
                    <span>US </span>
                  </td>
                </tr>
                <tr>
                  <td>Date of birth</td>
                  <td>
                    <span>01 September 1965</span>
                  </td>
                </tr>
              </tbody>
            </table>
          </div>
        </text>
        <identifier>
          <use value="usual"/>
          <system value="1.3.6.1.4.1.22812.3.99930.3"/>
          <value value="110107073916280"/>
        </identifier>
        <identifier>
          <use value="usual"/>
          <system value="https://www.edifecs.com/fhir/patient/identifier"/>
          <value value="74306e5e90359c6574c90a69b2e9325c1106c44a22d9733a67eaa53412bb3251"/>
        </identifier>
        <identifier>
          <use value="official"/>
          <system value="https://www.edifecs.com/fhir/patient/identifier"/>
          <value value="2035195ad9d796ff4d48f6f7c9c8ae758aa57c6efb53fc4ac9d50eb4605de7c0"/>
        </identifier>
        <name>
          <family value="Brown-Smith"/>
          <given value="James"/>
        </name>
        <telecom>
          <value value="tel:+1-(919)854-3333"/>
          <use value="home"/>
        </telecom>
        <telecom>
          <value value="tel:+1-(919)854-4444"/>
          <use value="home"/>
        </telecom>
        <gender value="male"/>
        <birthDate value="1965-09-01"/>
        <address>
          <line value="1234 Six Forks"/>
          <city value="Cary"/>
          <state value="NC"/>
          <postalCode value="27513"/>
          <country value="US"/>
        </address>
        <managingOrganization>
          <reference value="Organization/53256"/>
          <type value="Organization"/>
        </managingOrganization>
      </Patient>
    </resource>
    <search>
      <mode value="include"/>
    </search>
  </entry>
</Bundle>
