<?xml version="1.0" encoding="UTF-8"?>
<Bundle>
  <id value="15792624-5f41-4e1b-89cd-99bb6d64f628"/>
  <meta>
    <lastUpdated value="2020-05-31T19:18:49.635+00:00"/>
  </meta>
  <type value="searchset"/>
  <total value="5700"/>
  <link>
    <relation value="self"/>
    <url value="http://hapi.fhir.org/baseR4?_getpages=15792624-5f41-4e1b-89cd-99bb6d64f628&amp;_getpagesoffset=5600&amp;_count=20&amp;_format=xml&amp;_pretty=true&amp;_bundletype=searchset"/>
  </link>
  <link>
    <relation value="next"/>
    <url value="http://hapi.fhir.org/baseR4?_getpages=15792624-5f41-4e1b-89cd-99bb6d64f628&amp;_getpagesoffset=5620&amp;_count=20&amp;_format=xml&amp;_pretty=true&amp;_bundletype=searchset"/>
  </link>
  <link>
    <relation value="previous"/>
    <url value="http://hapi.fhir.org/baseR4?_getpages=15792624-5f41-4e1b-89cd-99bb6d64f628&amp;_getpagesoffset=5580&amp;_count=20&amp;_format=xml&amp;_pretty=true&amp;_bundletype=searchset"/>
  </link>
  <entry>
    <fullUrl value="http://hapi.fhir.org/baseR4/MedicationStatement/53225"/>
    <resource>
      <MedicationStatement>
        <id value="53225"/>
        <meta>
          <versionId value="1"/>
          <lastUpdated value="2019-11-01T18:21:32.312+00:00"/>
          <source value="#jkcy2CmYvZIMfcnV"/>
        </meta>
        <identifier>
          <use value="official"/>
          <system value="https://www.edifecs.com/fhir/medicationstatement/identifier"/>
          <value value="a860d6994c2798d3ef2247f35ced7e5131d12ff6c5a9150c6cb21c585897fc1a"/>
        </identifier>
        <status value="active"/>
        <medicationCodeableConcept>
          <coding>
            <system value="2.16.840.1.113883.6.88"/>
            <code value="258395"/>
            <display value="Lisinopril"/>
          </coding>
          <text value="RxNorm"/>
        </medicationCodeableConcept>
        <subject>
          <reference value="Patient/53254"/>
          <type value="Patient"/>
        </subject>
        <effectivePeriod>
          <start value="2010-01-10"/>
        </effectivePeriod>
        <informationSource>
          <reference value="Practitioner/53258"/>
          <type value="Practitioner"/>
        </informationSource>
        <dosage>
          <doseAndRate>
            <doseQuantity>
              <value value="1"/>
              <unit value="1"/>
            </doseQuantity>
          </doseAndRate>
        </dosage>
      </MedicationStatement>
    </resource>
    <search>
      <mode value="match"/>
    </search>
  </entry>
  <entry>
    <fullUrl value="http://hapi.fhir.org/baseR4/MedicationStatement/50592"/>
    <resource>
      <MedicationStatement>
        <id value="50592"/>
        <meta>
          <versionId value="1"/>
          <lastUpdated value="2019-10-25T07:35:48.551+00:00"/>
          <source value="#jZ0U67FbQwIq9WyO"/>
          <profile value="https://fhir.kbv.de/StructureDefinition/74_PR_VoS_Dosierung"/>
        </meta>
        <status value="active"/>
        <medicationReference>
          <reference value="Medication/50591"/>
        </medicationReference>
        <subject>
          <reference value="Patient/50587"/>
        </subject>
        <effectivePeriod>
          <start value="2019-11-01"/>
        </effectivePeriod>
        <dosage>
          <text value="dosage free text xxxxx"/>
        </dosage>
        <dosage>
          <timing>
            <code>
              <coding>
                <system value="http://hl7.org/fhir/v3/TimingEvent"/>
                <code value="CD"/>
              </coding>
            </code>
          </timing>
        </dosage>
        <dosage>
          <timing>
            <code>
              <coding>
                <system value="http://hl7.org/fhir/v3/TimingEvent"/>
                <code value="CM"/>
              </coding>
            </code>
          </timing>
        </dosage>
      </MedicationStatement>
    </resource>
    <search>
      <mode value="match"/>
    </search>
  </entry>
  <entry>
    <fullUrl value="http://hapi.fhir.org/baseR4/MedicationStatement/49690"/>
    <resource>
      <MedicationStatement>
        <id value="49690"/>
        <meta>
          <versionId value="1"/>
          <lastUpdated value="2019-10-21T06:21:07.990+00:00"/>
          <source value="#dsXRJySlqs4eFZFx"/>
        </meta>
        <text>
          <status value="generated"/>
          <div>citalopram 20 mg once daily</div>
        </text>
        <status value="active"/>
        <medicationCodeableConcept>
          <coding>
            <system value="http://snomed.info/ct"/>
            <code value="321987003"/>
            <display value="citalopram 20 mg"/>
          </coding>
          <text value="citalopram 20 mg"/>
        </medicationCodeableConcept>
        <subject>
          <reference value="Patient/49631"/>
        </subject>
        <dosage>
          <text value="once daily"/>
          <timing>
            <repeat>
              <frequency value="1"/>
              <period value="1"/>
              <periodUnit value="d"/>
            </repeat>
          </timing>
        </dosage>
      </MedicationStatement>
    </resource>
    <search>
      <mode value="match"/>
    </search>
  </entry>
  <entry>
    <fullUrl value="http://hapi.fhir.org/baseR4/MedicationStatement/49691"/>
    <resource>
      <MedicationStatement>
        <id value="49691"/>
        <meta>
          <versionId value="1"/>
          <lastUpdated value="2019-10-21T06:21:07.990+00:00"/>
          <source value="#dsXRJySlqs4eFZFx"/>
        </meta>
        <text>
          <status value="generated"/>
          <div>gabapentin 600mg twice daily</div>
        </text>
        <status value="active"/>
        <medicationCodeableConcept>
          <coding>
            <system value="http://snomed.info/ct"/>
            <code value="323021008"/>
            <display value="gabapentin 600mg"/>
          </coding>
          <text value="gabapentin 600mg"/>
        </medicationCodeableConcept>
        <subject>
          <reference value="Patient/49631"/>
        </subject>
        <dosage>
          <text value="twice daily"/>
          <timing>
            <repeat>
              <frequency value="2"/>
              <period value="1"/>
              <periodUnit value="d"/>
            </repeat>
          </timing>
        </dosage>
      </MedicationStatement>
    </resource>
    <search>
      <mode value="match"/>
    </search>
  </entry>
  <entry>
    <fullUrl value="http://hapi.fhir.org/baseR4/MedicationStatement/49696"/>
    <resource>
      <MedicationStatement>
        <id value="49696"/>
        <meta>
          <versionId value="1"/>
          <lastUpdated value="2019-10-21T06:21:07.990+00:00"/>
          <source value="#dsXRJySlqs4eFZFx"/>
        </meta>
        <text>
          <status value="generated"/>
          <div>omeprazole 40mg daily</div>
        </text>
        <status value="active"/>
        <medicationCodeableConcept>
          <coding>
            <system value="http://snomed.info/ct"/>
            <code value="407848004"/>
            <display value="omeprazole 40mg e/c tablet"/>
          </coding>
          <text value="omeprazole 40mg e/c tablet "/>
        </medicationCodeableConcept>
        <subject>
          <reference value="Patient/49631"/>
        </subject>
        <dosage>
          <text value="1 tab once daily"/>
          <timing>
            <repeat>
              <frequency value="1"/>
              <period value="1"/>
              <periodUnit value="d"/>
            </repeat>
          </timing>
        </dosage>
      </MedicationStatement>
    </resource>
    <search>
      <mode value="match"/>
    </search>
  </entry>
  <entry>
    <fullUrl value="http://hapi.fhir.org/baseR4/MedicationStatement/49685"/>
    <resource>
      <MedicationStatement>
        <id value="49685"/>
        <meta>
          <versionId value="1"/>
          <lastUpdated value="2019-10-21T06:21:07.990+00:00"/>
          <source value="#dsXRJySlqs4eFZFx"/>
        </meta>
        <text>
          <status value="generated"/>
          <div>salbutamol inhaler 2 puffs every 4 hours as required</div>
        </text>
        <status value="active"/>
        <medicationCodeableConcept>
          <coding>
            <system value="http://snomed.info/ct"/>
            <code value=" 320176004"/>
            <display value=" salbutamol 100micrograms/inhaler "/>
          </coding>
          <text value="salbutamol 100micrograms/inhaler"/>
        </medicationCodeableConcept>
        <subject>
          <reference value="Patient/49631"/>
        </subject>
        <dosage>
          <text value="2 puffs every 4 hours as needed"/>
          <timing>
            <repeat>
              <frequency value="1"/>
              <period value="4"/>
              <periodUnit value="h"/>
            </repeat>
          </timing>
          <asNeededBoolean value="true"/>
        </dosage>
      </MedicationStatement>
    </resource>
    <search>
      <mode value="match"/>
    </search>
  </entry>
  <entry>
    <fullUrl value="http://hapi.fhir.org/baseR4/MedicationStatement/49697"/>
    <resource>
      <MedicationStatement>
        <id value="49697"/>
        <meta>
          <versionId value="1"/>
          <lastUpdated value="2019-10-21T06:21:07.990+00:00"/>
          <source value="#dsXRJySlqs4eFZFx"/>
        </meta>
        <text>
          <status value="generated"/>
          <div>prednisone 20mg 2 tabs/day</div>
        </text>
        <status value="active"/>
        <medicationCodeableConcept>
          <coding>
            <system value="http://snomed.info/ct"/>
            <code value="325456002"/>
            <display value="prednisone 20mg"/>
          </coding>
          <text value="prednisone 20mg"/>
        </medicationCodeableConcept>
        <subject>
          <reference value="Patient/49631"/>
        </subject>
        <dosage>
          <text value="2 tabs once daily"/>
          <timing>
            <repeat>
              <frequency value="1"/>
              <period value="1"/>
              <periodUnit value="d"/>
            </repeat>
          </timing>
          <asNeededBoolean value="true"/>
        </dosage>
      </MedicationStatement>
    </resource>
    <search>
      <mode value="match"/>
    </search>
  </entry>
  <entry>
    <fullUrl value="http://hapi.fhir.org/baseR4/MedicationStatement/49686"/>
    <resource>
      <MedicationStatement>
        <id value="49686"/>
        <meta>
          <versionId value="1"/>
          <lastUpdated value="2019-10-21T06:21:07.990+00:00"/>
          <source value="#dsXRJySlqs4eFZFx"/>
        </meta>
        <text>
          <status value="generated"/>
          <div>aspirin 81mg once daily</div>
        </text>
        <contained>
          <Medication>
            <id value="med1"/>
            <code>
              <coding>
                <system value="http://snomed.info/ct"/>
                <code value="370167008 "/>
                <display value="aspirin 81mg e/c tablet "/>
              </coding>
              <text value="aspirin 81mg e/c tablet"/>
            </code>
          </Medication>
        </contained>
        <status value="active"/>
        <medicationReference>
          <reference value="#med1"/>
          <display value="aspirin 81mg e/c tablet"/>
        </medicationReference>
        <subject>
          <reference value="Patient/49631"/>
        </subject>
        <dosage>
          <text value="once daily"/>
          <timing>
            <repeat>
              <frequency value="1"/>
              <period value="1"/>
              <periodUnit value="d"/>
            </repeat>
          </timing>
        </dosage>
      </MedicationStatement>
    </resource>
    <search>
      <mode value="match"/>
    </search>
  </entry>
  <entry>
    <fullUrl value="http://hapi.fhir.org/baseR4/MedicationStatement/49698"/>
    <resource>
      <MedicationStatement>
        <id value="49698"/>
        <meta>
          <versionId value="1"/>
          <lastUpdated value="2019-10-21T06:21:07.990+00:00"/>
          <source value="#dsXRJySlqs4eFZFx"/>
        </meta>
        <text>
          <status value="generated"/>
          <div>simvastatin 40mg once daily</div>
        </text>
        <status value="active"/>
        <medicationCodeableConcept>
          <coding>
            <system value="http://snomed.info/ct"/>
            <code value="429374003"/>
            <display value="simvastatin 40mg"/>
          </coding>
          <text value="simvastatin 40mg"/>
        </medicationCodeableConcept>
        <subject>
          <reference value="Patient/49631"/>
        </subject>
        <dosage>
          <text value="1 tab once daily"/>
          <timing>
            <repeat>
              <frequency value="1"/>
              <period value="1"/>
              <periodUnit value="d"/>
            </repeat>
          </timing>
          <asNeededBoolean value="true"/>
        </dosage>
      </MedicationStatement>
    </resource>
    <search>
      <mode value="match"/>
    </search>
  </entry>
  <entry>
    <fullUrl value="http://hapi.fhir.org/baseR4/MedicationStatement/49687"/>
    <resource>
      <MedicationStatement>
        <id value="49687"/>
        <meta>
          <versionId value="1"/>
          <lastUpdated value="2019-10-21T06:21:07.990+00:00"/>
          <source value="#dsXRJySlqs4eFZFx"/>
        </meta>
        <text>
          <status value="generated"/>
          <div>beclomethasone 2 puffs twice daily</div>
        </text>
        <status value="active"/>
        <medicationCodeableConcept>
          <coding>
            <system value="http://snomed.info/ct"/>
            <code value="376733004"/>
            <display value="beclomethasone dipropionate 40mcg aerosol"/>
          </coding>
          <text value="beclomethasone dipropionate 40mcg aerosol"/>
        </medicationCodeableConcept>
        <subject>
          <reference value="Patient/49631"/>
        </subject>
        <dosage>
          <text value="2 puffs twice daily"/>
          <timing>
            <repeat>
              <frequency value="2"/>
              <period value="1"/>
              <periodUnit value="d"/>
            </repeat>
          </timing>
          <asNeededBoolean value="false"/>
        </dosage>
      </MedicationStatement>
    </resource>
    <search>
      <mode value="match"/>
    </search>
  </entry>
  <entry>
    <fullUrl value="http://hapi.fhir.org/baseR4/MedicationStatement/49699"/>
    <resource>
      <MedicationStatement>
        <id value="49699"/>
        <meta>
          <versionId value="1"/>
          <lastUpdated value="2019-10-21T06:21:07.990+00:00"/>
          <source value="#dsXRJySlqs4eFZFx"/>
        </meta>
        <text>
          <status value="generated"/>
          <div>terbinafine 250mg once daily</div>
        </text>
        <status value="active"/>
        <medicationCodeableConcept>
          <coding>
            <system value="http://snomed.info/ct"/>
            <code value="324718007"/>
            <display value="terbinafine 250mg"/>
          </coding>
          <text value="terbinafine 250mg"/>
        </medicationCodeableConcept>
        <subject>
          <reference value="Patient/49631"/>
        </subject>
        <dosage>
          <text value="1 tab once daily"/>
          <timing>
            <repeat>
              <frequency value="1"/>
              <period value="1"/>
              <periodUnit value="d"/>
            </repeat>
          </timing>
          <asNeededBoolean value="true"/>
        </dosage>
      </MedicationStatement>
    </resource>
    <search>
      <mode value="match"/>
    </search>
  </entry>
  <entry>
    <fullUrl value="http://hapi.fhir.org/baseR4/MedicationStatement/49688"/>
    <resource>
      <MedicationStatement>
        <id value="49688"/>
        <meta>
          <versionId value="1"/>
          <lastUpdated value="2019-10-21T06:21:07.990+00:00"/>
          <source value="#dsXRJySlqs4eFZFx"/>
        </meta>
        <text>
          <status value="generated"/>
          <div>carvedilol 25 mg twice daily</div>
        </text>
        <status value="active"/>
        <medicationCodeableConcept>
          <coding>
            <system value="http://snomed.info/ct"/>
            <code value="318632005"/>
            <display value="carvedilol 25 mg"/>
          </coding>
          <text value="carvedilol 25 mg"/>
        </medicationCodeableConcept>
        <subject>
          <reference value="Patient/49631"/>
        </subject>
        <dosage>
          <text value="twice daily"/>
          <timing>
            <repeat>
              <frequency value="2"/>
              <period value="1"/>
              <periodUnit value="d"/>
            </repeat>
          </timing>
        </dosage>
      </MedicationStatement>
    </resource>
    <search>
      <mode value="match"/>
    </search>
  </entry>
  <entry>
    <fullUrl value="http://hapi.fhir.org/baseR4/MedicationStatement/49692"/>
    <resource>
      <MedicationStatement>
        <id value="49692"/>
        <meta>
          <versionId value="1"/>
          <lastUpdated value="2019-10-21T06:21:07.990+00:00"/>
          <source value="#dsXRJySlqs4eFZFx"/>
        </meta>
        <text>
          <status value="generated"/>
          <div>insulin glargine 100units/mL 28 units nocte</div>
        </text>
        <status value="active"/>
        <medicationCodeableConcept>
          <coding>
            <system value="http://snomed.info/ct"/>
            <code value="400847007"/>
            <display value="insulin glargine 100units/mL injection"/>
          </coding>
          <text value="insulin glargine 100units/mL injection"/>
        </medicationCodeableConcept>
        <subject>
          <reference value="Patient/49631"/>
        </subject>
        <dosage>
          <text value="28 units before bed"/>
          <timing>
            <repeat>
              <frequency value="1"/>
              <period value="1"/>
              <periodUnit value="d"/>
            </repeat>
          </timing>
        </dosage>
      </MedicationStatement>
    </resource>
    <search>
      <mode value="match"/>
    </search>
  </entry>
  <entry>
    <fullUrl value="http://hapi.fhir.org/baseR4/MedicationStatement/49693"/>
    <resource>
      <MedicationStatement>
        <id value="49693"/>
        <meta>
          <versionId value="1"/>
          <lastUpdated value="2019-10-21T06:21:07.990+00:00"/>
          <source value="#dsXRJySlqs4eFZFx"/>
        </meta>
        <text>
          <status value="generated"/>
          <div>losartan 100mg + hydrochlorothiazide 12.5mg once daily</div>
        </text>
        <status value="active"/>
        <medicationCodeableConcept>
          <coding>
            <system value="http://snomed.info/ct"/>
            <code value="444639002"/>
            <display value="losartan 100mg + hydrochlorothiazide 12.5mg"/>
          </coding>
          <text value="losartan 100mg + hydrochlorothiazide 12.5mg"/>
        </medicationCodeableConcept>
        <subject>
          <reference value="Patient/49631"/>
        </subject>
        <dosage>
          <text value="once daily"/>
          <timing>
            <repeat>
              <frequency value="1"/>
              <period value="1"/>
              <periodUnit value="d"/>
            </repeat>
          </timing>
        </dosage>
      </MedicationStatement>
    </resource>
    <search>
      <mode value="match"/>
    </search>
  </entry>
  <entry>
    <fullUrl value="http://hapi.fhir.org/baseR4/MedicationStatement/49694"/>
    <resource>
      <MedicationStatement>
        <id value="49694"/>
        <meta>
          <versionId value="1"/>
          <lastUpdated value="2019-10-21T06:21:07.990+00:00"/>
          <source value="#dsXRJySlqs4eFZFx"/>
        </meta>
        <text>
          <status value="generated"/>
          <div>metformin 1000mg twice daily</div>
        </text>
        <status value="active"/>
        <medicationCodeableConcept>
          <coding>
            <system value="http://snomed.info/ct"/>
            <code value="411533003"/>
            <display value="metformin 1000mg"/>
          </coding>
          <text value="metformin 1000mg"/>
        </medicationCodeableConcept>
        <subject>
          <reference value="Patient/49631"/>
        </subject>
        <dosage>
          <text value="1 tab twice daily"/>
          <timing>
            <repeat>
              <frequency value="2"/>
              <period value="1"/>
              <periodUnit value="d"/>
            </repeat>
          </timing>
        </dosage>
      </MedicationStatement>
    </resource>
    <search>
      <mode value="match"/>
    </search>
  </entry>
  <entry>
    <fullUrl value="http://hapi.fhir.org/baseR4/MedicationStatement/49695"/>
    <resource>
      <MedicationStatement>
        <id value="49695"/>
        <meta>
          <versionId value="1"/>
          <lastUpdated value="2019-10-21T06:21:07.990+00:00"/>
          <source value="#dsXRJySlqs4eFZFx"/>
        </meta>
        <text>
          <status value="generated"/>
          <div>naproxen 500mg twice daily</div>
        </text>
        <status value="active"/>
        <medicationCodeableConcept>
          <coding>
            <system value="http://snomed.info/ct"/>
            <code value="329839005"/>
            <display value="naproxen 500mg e/c tablet"/>
          </coding>
          <text value="naproxen 500mg e/c tablet"/>
        </medicationCodeableConcept>
        <subject>
          <reference value="Patient/49631"/>
        </subject>
        <dosage>
          <text value="1 tab twice daily"/>
          <timing>
            <repeat>
              <frequency value="2"/>
              <period value="1"/>
              <periodUnit value="d"/>
            </repeat>
          </timing>
        </dosage>
      </MedicationStatement>
    </resource>
    <search>
      <mode value="match"/>
    </search>
  </entry>
  <entry>
    <fullUrl value="http://hapi.fhir.org/baseR4/MedicationStatement/49700"/>
    <resource>
      <MedicationStatement>
        <id value="49700"/>
        <meta>
          <versionId value="1"/>
          <lastUpdated value="2019-10-21T06:21:07.990+00:00"/>
          <source value="#dsXRJySlqs4eFZFx"/>
        </meta>
        <text>
          <status value="generated"/>
          <div>zolpidem 5mg sublingual tablet, 1 nocte</div>
        </text>
        <status value="active"/>
        <medicationCodeableConcept>
          <coding>
            <system value="http://snomed.info/ct"/>
            <code value="442160008"/>
            <display value="zolpidem 5mg sublingual tablet"/>
          </coding>
          <text value="zolpidem 5mg sublingual tablet"/>
        </medicationCodeableConcept>
        <subject>
          <reference value="Patient/49631"/>
        </subject>
        <dosage>
          <text value="1 tab before bed"/>
          <timing>
            <repeat>
              <frequency value="1"/>
              <period value="1"/>
              <periodUnit value="d"/>
            </repeat>
          </timing>
        </dosage>
      </MedicationStatement>
    </resource>
    <search>
      <mode value="match"/>
    </search>
  </entry>
  <entry>
    <fullUrl value="http://hapi.fhir.org/baseR4/MedicationStatement/49689"/>
    <resource>
      <MedicationStatement>
        <id value="49689"/>
        <meta>
          <versionId value="1"/>
          <lastUpdated value="2019-10-21T06:21:07.990+00:00"/>
          <source value="#dsXRJySlqs4eFZFx"/>
        </meta>
        <text>
          <status value="generated"/>
          <div>chlortalidone 15 mg once daily</div>
        </text>
        <status value="active"/>
        <medicationCodeableConcept>
          <coding>
            <system value="http://snomed.info/ct"/>
            <code value="376321007"/>
            <display value="chlortalidone 15 mg"/>
          </coding>
          <text value="chlortalidone 15 mg"/>
        </medicationCodeableConcept>
        <subject>
          <reference value="Patient/49631"/>
        </subject>
        <dosage>
          <text value="once daily"/>
          <timing>
            <repeat>
              <frequency value="1"/>
              <period value="1"/>
              <periodUnit value="d"/>
            </repeat>
          </timing>
        </dosage>
      </MedicationStatement>
    </resource>
    <search>
      <mode value="match"/>
    </search>
  </entry>
  <entry>
    <fullUrl value="http://hapi.fhir.org/baseR4/MedicationStatement/49701"/>
    <resource>
      <MedicationStatement>
        <id value="49701"/>
        <meta>
          <versionId value="1"/>
          <lastUpdated value="2019-10-21T06:21:07.990+00:00"/>
          <source value="#dsXRJySlqs4eFZFx"/>
        </meta>
        <text>
          <status value="generated"/>
          <div>lisinopril 20mg mane</div>
        </text>
        <status value="active"/>
        <medicationCodeableConcept>
          <coding>
            <system value="http://snomed.info/ct"/>
            <code value="318860005"/>
            <display value="lisinopril 20mg"/>
          </coding>
          <text value="lisinopril 20mg"/>
        </medicationCodeableConcept>
        <subject>
          <reference value="Patient/49631"/>
        </subject>
        <dosage>
          <text value="once daily"/>
          <timing>
            <repeat>
              <frequency value="1"/>
              <period value="1"/>
              <periodUnit value="d"/>
            </repeat>
          </timing>
        </dosage>
      </MedicationStatement>
    </resource>
    <search>
      <mode value="match"/>
    </search>
  </entry>
  <entry>
    <fullUrl value="http://hapi.fhir.org/baseR4/MedicationStatement/49703"/>
    <resource>
      <MedicationStatement>
        <id value="49703"/>
        <meta>
          <versionId value="1"/>
          <lastUpdated value="2019-10-21T06:21:07.990+00:00"/>
          <source value="#dsXRJySlqs4eFZFx"/>
        </meta>
        <status value="active"/>
        <medicationCodeableConcept>
          <coding>
            <system value="http://snomed.info/ct"/>
            <code value="321323009"/>
            <display value="buspirone 5mg"/>
          </coding>
        </medicationCodeableConcept>
        <subject>
          <reference value="Patient/49631"/>
        </subject>
        <dosage>
          <text value="3 times daily"/>
          <timing>
            <repeat>
              <frequency value="3"/>
              <period value="1"/>
              <periodUnit value="d"/>
            </repeat>
          </timing>
        </dosage>
      </MedicationStatement>
    </resource>
    <search>
      <mode value="match"/>
    </search>
  </entry>
  <entry>
    <fullUrl value="http://hapi.fhir.org/baseR4/Patient/53254"/>
    <resource>
      <Patient>
        <id value="53254"/>
        <meta>
          <versionId value="1"/>
          <lastUpdated value="2019-11-01T18:21:32.312+00:00"/>
          <source value="#jkcy2CmYvZIMfcnV"/>
        </meta>
        <text>
          <status value="generated"/>
          <div>
            <div class="hapiHeaderText">James 
                     <b>SMITH </b>
                  </div>
            <table class="hapiPropertyTable">
              <tbody>
                <tr>
                  <td>Identifier</td>
                  <td>110107073916280</td>
                </tr>
                <tr>
                  <td>Address</td>
                  <td>
                    <span>1234 Six Forks </span>
                    <br/>
                    <span>Cary </span>
                    <span>NC </span>
                    <span>US </span>
                  </td>
                </tr>
                <tr>
                  <td>Date of birth</td>
                  <td>
                    <span>01 September 1965</span>
                  </td>
                </tr>
              </tbody>
            </table>
          </div>
        </text>
        <identifier>
          <use value="usual"/>
          <system value="1.3.6.1.4.1.22812.3.99930.3"/>
          <value value="110107073916280"/>
        </identifier>
        <identifier>
          <use value="official"/>
          <system value="https://www.edifecs.com/fhir/patient/identifier"/>
          <value value="74306e5e90359c6574c90a69b2e9325c1106c44a22d9733a67eaa53412bb3251"/>
        </identifier>
        <name>
          <family value="Smith"/>
          <given value="James"/>
        </name>
        <telecom>
          <value value="tel:+1-(919)854-3333"/>
          <use value="home"/>
        </telecom>
        <telecom>
          <value value="tel:+1-(919)854-4444"/>
          <use value="home"/>
        </telecom>
        <gender value="male"/>
        <birthDate value="1965-09-01"/>
        <address>
          <line value="1234 Six Forks"/>
          <city value="Cary"/>
          <state value="NC"/>
          <postalCode value="27513"/>
          <country value="US"/>
        </address>
        <managingOrganization>
          <reference value="Organization/53256"/>
          <type value="Organization"/>
        </managingOrganization>
      </Patient>
    </resource>
    <search>
      <mode value="include"/>
    </search>
  </entry>
  <entry>
    <fullUrl value="http://hapi.fhir.org/baseR4/Patient/50587"/>
    <resource>
      <Patient>
        <id value="50587"/>
        <meta>
          <versionId value="2"/>
          <lastUpdated value="2020-01-14T11:17:51.761+00:00"/>
          <source value="#e0ER8yODE3aVy90a"/>
        </meta>
        <text>
          <status value="generated"/>
          <div>
            <div class="hapiHeaderText">Martina 
                     <b>MUSTERMAN </b>
                  </div>
            <table class="hapiPropertyTable">
              <tbody>
                <tr>
                  <td>Address</td>
                  <td>
                    <span>Musterweg 42,Hinterhof 2. Etage </span>
                    <br/>
                    <span>Berlin </span>
                  </td>
                </tr>
                <tr>
                  <td>Date of birth</td>
                  <td>
                    <span>01 January 0001</span>
                  </td>
                </tr>
              </tbody>
            </table>
          </div>
        </text>
        <name>
          <family value="Musterman"/>
          <given value="Martina"/>
        </name>
        <gender value="female"/>
        <birthDate value="0001-01-01"/>
        <address>
          <line value="Musterweg 42,Hinterhof 2. Etage"/>
          <city value="Berlin"/>
          <postalCode value="10787"/>
        </address>
      </Patient>
    </resource>
    <search>
      <mode value="include"/>
    </search>
  </entry>
  <entry>
    <fullUrl value="http://hapi.fhir.org/baseR4/Patient/49631"/>
    <resource>
      <Patient>
        <id value="49631"/>
        <meta>
          <versionId value="1"/>
          <lastUpdated value="2019-10-21T06:21:02.331+00:00"/>
          <source value="#HS2zrcm7ZCLi8L6H"/>
        </meta>
        <text>
          <status value="generated"/>
          <div>Olive Hall</div>
        </text>
        <name>
          <use value="official"/>
          <text value="Olive Hall"/>
          <family value="Hall"/>
          <given value="Olive"/>
        </name>
        <gender value="female"/>
        <birthDate value="2019-10-21"/>
      </Patient>
    </resource>
    <search>
      <mode value="include"/>
    </search>
  </entry>
</Bundle>
