<?xml version="1.0" encoding="UTF-8"?>
<Bundle>
  <id value="15792624-5f41-4e1b-89cd-99bb6d64f628"/>
  <meta>
    <lastUpdated value="2020-05-31T19:18:49.635+00:00"/>
  </meta>
  <type value="searchset"/>
  <total value="5700"/>
  <link>
    <relation value="self"/>
    <url value="http://hapi.fhir.org/baseR4?_getpages=15792624-5f41-4e1b-89cd-99bb6d64f628&amp;_getpagesoffset=5660&amp;_count=20&amp;_format=xml&amp;_pretty=true&amp;_bundletype=searchset"/>
  </link>
  <link>
    <relation value="next"/>
    <url value="http://hapi.fhir.org/baseR4?_getpages=15792624-5f41-4e1b-89cd-99bb6d64f628&amp;_getpagesoffset=5680&amp;_count=20&amp;_format=xml&amp;_pretty=true&amp;_bundletype=searchset"/>
  </link>
  <link>
    <relation value="previous"/>
    <url value="http://hapi.fhir.org/baseR4?_getpages=15792624-5f41-4e1b-89cd-99bb6d64f628&amp;_getpagesoffset=5640&amp;_count=20&amp;_format=xml&amp;_pretty=true&amp;_bundletype=searchset"/>
  </link>
  <entry>
    <fullUrl value="http://hapi.fhir.org/baseR4/MedicationStatement/42002"/>
    <resource>
      <MedicationStatement>
        <id value="42002"/>
        <meta>
          <versionId value="1"/>
          <lastUpdated value="2019-10-09T20:12:49.778+00:00"/>
          <source value="#c631e5c04d46de35"/>
        </meta>
        <text>
          <status value="generated"/>
          <div>carvedilol 25 mg twice daily</div>
        </text>
        <status value="active"/>
        <medicationCodeableConcept>
          <coding>
            <system value="http://snomed.info/ct"/>
            <code value="318632005"/>
            <display value="carvedilol 25 mg"/>
          </coding>
          <text value="carvedilol 25 mg"/>
        </medicationCodeableConcept>
        <subject>
          <reference value="Patient/41945"/>
        </subject>
        <dosage>
          <text value="twice daily"/>
          <timing>
            <repeat>
              <frequency value="2"/>
              <period value="1"/>
              <periodUnit value="d"/>
            </repeat>
          </timing>
        </dosage>
      </MedicationStatement>
    </resource>
    <search>
      <mode value="match"/>
    </search>
  </entry>
  <entry>
    <fullUrl value="http://hapi.fhir.org/baseR4/MedicationStatement/42012"/>
    <resource>
      <MedicationStatement>
        <id value="42012"/>
        <meta>
          <versionId value="1"/>
          <lastUpdated value="2019-10-09T20:12:49.778+00:00"/>
          <source value="#c631e5c04d46de35"/>
        </meta>
        <text>
          <status value="generated"/>
          <div>simvastatin 40mg once daily</div>
        </text>
        <status value="active"/>
        <medicationCodeableConcept>
          <coding>
            <system value="http://snomed.info/ct"/>
            <code value="429374003"/>
            <display value="simvastatin 40mg"/>
          </coding>
          <text value="simvastatin 40mg"/>
        </medicationCodeableConcept>
        <subject>
          <reference value="Patient/41945"/>
        </subject>
        <dosage>
          <text value="1 tab once daily"/>
          <timing>
            <repeat>
              <frequency value="1"/>
              <period value="1"/>
              <periodUnit value="d"/>
            </repeat>
          </timing>
          <asNeededBoolean value="true"/>
        </dosage>
      </MedicationStatement>
    </resource>
    <search>
      <mode value="match"/>
    </search>
  </entry>
  <entry>
    <fullUrl value="http://hapi.fhir.org/baseR4/MedicationStatement/42001"/>
    <resource>
      <MedicationStatement>
        <id value="42001"/>
        <meta>
          <versionId value="1"/>
          <lastUpdated value="2019-10-09T20:12:49.778+00:00"/>
          <source value="#c631e5c04d46de35"/>
        </meta>
        <text>
          <status value="generated"/>
          <div>beclomethasone 2 puffs twice daily</div>
        </text>
        <status value="active"/>
        <medicationCodeableConcept>
          <coding>
            <system value="http://snomed.info/ct"/>
            <code value="376733004"/>
            <display value="beclomethasone dipropionate 40mcg aerosol"/>
          </coding>
          <text value="beclomethasone dipropionate 40mcg aerosol"/>
        </medicationCodeableConcept>
        <subject>
          <reference value="Patient/41945"/>
        </subject>
        <dosage>
          <text value="2 puffs twice daily"/>
          <timing>
            <repeat>
              <frequency value="2"/>
              <period value="1"/>
              <periodUnit value="d"/>
            </repeat>
          </timing>
          <asNeededBoolean value="false"/>
        </dosage>
      </MedicationStatement>
    </resource>
    <search>
      <mode value="match"/>
    </search>
  </entry>
  <entry>
    <fullUrl value="http://hapi.fhir.org/baseR4/MedicationStatement/42011"/>
    <resource>
      <MedicationStatement>
        <id value="42011"/>
        <meta>
          <versionId value="1"/>
          <lastUpdated value="2019-10-09T20:12:49.778+00:00"/>
          <source value="#c631e5c04d46de35"/>
        </meta>
        <text>
          <status value="generated"/>
          <div>prednisone 20mg 2 tabs/day</div>
        </text>
        <status value="active"/>
        <medicationCodeableConcept>
          <coding>
            <system value="http://snomed.info/ct"/>
            <code value="325456002"/>
            <display value="prednisone 20mg"/>
          </coding>
          <text value="prednisone 20mg"/>
        </medicationCodeableConcept>
        <subject>
          <reference value="Patient/41945"/>
        </subject>
        <dosage>
          <text value="2 tabs once daily"/>
          <timing>
            <repeat>
              <frequency value="1"/>
              <period value="1"/>
              <periodUnit value="d"/>
            </repeat>
          </timing>
          <asNeededBoolean value="true"/>
        </dosage>
      </MedicationStatement>
    </resource>
    <search>
      <mode value="match"/>
    </search>
  </entry>
  <entry>
    <fullUrl value="http://hapi.fhir.org/baseR4/MedicationStatement/42000"/>
    <resource>
      <MedicationStatement>
        <id value="42000"/>
        <meta>
          <versionId value="1"/>
          <lastUpdated value="2019-10-09T20:12:49.778+00:00"/>
          <source value="#c631e5c04d46de35"/>
        </meta>
        <text>
          <status value="generated"/>
          <div>aspirin 81mg once daily</div>
        </text>
        <contained>
          <Medication>
            <id value="med1"/>
            <code>
              <coding>
                <system value="http://snomed.info/ct"/>
                <code value="370167008 "/>
                <display value="aspirin 81mg e/c tablet "/>
              </coding>
              <text value="aspirin 81mg e/c tablet"/>
            </code>
          </Medication>
        </contained>
        <status value="active"/>
        <medicationReference>
          <reference value="#med1"/>
          <display value="aspirin 81mg e/c tablet"/>
        </medicationReference>
        <subject>
          <reference value="Patient/41945"/>
        </subject>
        <dosage>
          <text value="once daily"/>
          <timing>
            <repeat>
              <frequency value="1"/>
              <period value="1"/>
              <periodUnit value="d"/>
            </repeat>
          </timing>
        </dosage>
      </MedicationStatement>
    </resource>
    <search>
      <mode value="match"/>
    </search>
  </entry>
  <entry>
    <fullUrl value="http://hapi.fhir.org/baseR4/MedicationStatement/40429"/>
    <resource>
      <MedicationStatement>
        <id value="40429"/>
        <meta>
          <versionId value="1"/>
          <lastUpdated value="2019-10-04T09:33:42.949+00:00"/>
          <source value="#8ebd18e9ce17c165"/>
        </meta>
        <status value="completed"/>
        <statusReason>
          <coding>
            <system value="http://snomed.info/sct"/>
            <code value="182862001"/>
            <display value="Drug not taken - dislike taste"/>
          </coding>
        </statusReason>
        <category>
          <coding>
            <system value="http://terminology.hl7.org/CodeSystem/medication-statement-category"/>
            <code value="inpatient"/>
            <display value="Inpatient"/>
          </coding>
        </category>
        <medicationCodeableConcept>
          <coding>
            <system value="http://snomed.info/sct"/>
            <code value="261000"/>
            <display value="Codeine phosphate"/>
          </coding>
        </medicationCodeableConcept>
        <subject>
          <reference value="Patient/39089"/>
        </subject>
        <context>
          <reference value="Encounter/40418"/>
        </context>
        <effectivePeriod>
          <start value="2009-09-01T04:10:38.000+00:00"/>
          <end value="2009-09-01T04:10:38.000+00:00"/>
        </effectivePeriod>
        <dateAsserted value="2009-09-01T04:10:38"/>
        <reasonCode>
          <coding>
            <system value="http://snomed.info/sct"/>
            <code value="109006"/>
            <display value="Anxiety disorder of childhood OR adolescence"/>
          </coding>
        </reasonCode>
      </MedicationStatement>
    </resource>
    <search>
      <mode value="match"/>
    </search>
  </entry>
  <entry>
    <fullUrl value="http://hapi.fhir.org/baseR4/MedicationStatement/40413"/>
    <resource>
      <MedicationStatement>
        <id value="40413"/>
        <meta>
          <versionId value="1"/>
          <lastUpdated value="2019-10-04T09:23:54.756+00:00"/>
          <source value="#5a1b14c244afe235"/>
        </meta>
        <status value="completed"/>
        <statusReason>
          <coding>
            <system value="http://snomed.info/sct"/>
            <code value="182862001"/>
            <display value="Drug not taken - dislike taste"/>
          </coding>
        </statusReason>
        <category>
          <coding>
            <system value="http://terminology.hl7.org/CodeSystem/medication-statement-category"/>
            <code value="inpatient"/>
            <display value="Inpatient"/>
          </coding>
        </category>
        <medicationCodeableConcept>
          <coding>
            <system value="http://snomed.info/sct"/>
            <code value="261000"/>
            <display value="Codeine phosphate"/>
          </coding>
        </medicationCodeableConcept>
        <subject>
          <reference value="Patient/39089"/>
        </subject>
        <context>
          <reference value="Encounter/40402"/>
        </context>
        <effectivePeriod>
          <start value="2009-09-01T04:10:38.000+00:00"/>
          <end value="2009-09-01T04:10:38.000+00:00"/>
        </effectivePeriod>
        <dateAsserted value="2009-09-01T04:10:38"/>
        <reasonCode>
          <coding>
            <system value="http://snomed.info/sct"/>
            <code value="109006"/>
            <display value="Anxiety disorder of childhood OR adolescence"/>
          </coding>
        </reasonCode>
      </MedicationStatement>
    </resource>
    <search>
      <mode value="match"/>
    </search>
  </entry>
  <entry>
    <fullUrl value="http://hapi.fhir.org/baseR4/MedicationStatement/40397"/>
    <resource>
      <MedicationStatement>
        <id value="40397"/>
        <meta>
          <versionId value="1"/>
          <lastUpdated value="2019-10-04T09:20:21.301+00:00"/>
          <source value="#e7dc74e5ae2b4ef6"/>
        </meta>
        <status value="completed"/>
        <statusReason>
          <coding>
            <system value="http://snomed.info/sct"/>
            <code value="182862001"/>
            <display value="Drug not taken - dislike taste"/>
          </coding>
        </statusReason>
        <category>
          <coding>
            <system value="http://terminology.hl7.org/CodeSystem/medication-statement-category"/>
            <code value="inpatient"/>
            <display value="Inpatient"/>
          </coding>
        </category>
        <medicationCodeableConcept>
          <coding>
            <system value="http://snomed.info/sct"/>
            <code value="261000"/>
            <display value="Codeine phosphate"/>
          </coding>
        </medicationCodeableConcept>
        <subject>
          <reference value="Patient/39089"/>
        </subject>
        <context>
          <reference value="Encounter/40386"/>
        </context>
        <effectivePeriod>
          <start value="2009-09-01T04:10:38.000+00:00"/>
          <end value="2009-09-01T04:10:38.000+00:00"/>
        </effectivePeriod>
        <dateAsserted value="2009-09-01T04:10:38"/>
        <reasonCode>
          <coding>
            <system value="http://snomed.info/sct"/>
            <code value="109006"/>
            <display value="Anxiety disorder of childhood OR adolescence"/>
          </coding>
        </reasonCode>
      </MedicationStatement>
    </resource>
    <search>
      <mode value="match"/>
    </search>
  </entry>
  <entry>
    <fullUrl value="http://hapi.fhir.org/baseR4/MedicationStatement/40381"/>
    <resource>
      <MedicationStatement>
        <id value="40381"/>
        <meta>
          <versionId value="1"/>
          <lastUpdated value="2019-10-04T09:13:50.603+00:00"/>
          <source value="#24af3ad9098ca97b"/>
        </meta>
        <status value="completed"/>
        <statusReason>
          <coding>
            <system value="http://snomed.info/sct"/>
            <code value="182862001"/>
            <display value="Drug not taken - dislike taste"/>
          </coding>
        </statusReason>
        <category>
          <coding>
            <system value="http://terminology.hl7.org/CodeSystem/medication-statement-category"/>
            <code value="inpatient"/>
            <display value="Inpatient"/>
          </coding>
        </category>
        <medicationCodeableConcept>
          <coding>
            <system value="http://snomed.info/sct"/>
            <code value="261000"/>
            <display value="Codeine phosphate"/>
          </coding>
        </medicationCodeableConcept>
        <subject>
          <reference value="Patient/39089"/>
        </subject>
        <context>
          <reference value="Encounter/40370"/>
        </context>
        <effectivePeriod>
          <start value="2009-09-01T04:10:38.000+00:00"/>
          <end value="2009-09-01T04:10:38.000+00:00"/>
        </effectivePeriod>
        <dateAsserted value="2009-09-01T04:10:38"/>
        <reasonCode>
          <coding>
            <system value="http://snomed.info/sct"/>
            <code value="109006"/>
            <display value="Anxiety disorder of childhood OR adolescence"/>
          </coding>
        </reasonCode>
      </MedicationStatement>
    </resource>
    <search>
      <mode value="match"/>
    </search>
  </entry>
  <entry>
    <fullUrl value="http://hapi.fhir.org/baseR4/MedicationStatement/40365"/>
    <resource>
      <MedicationStatement>
        <id value="40365"/>
        <meta>
          <versionId value="1"/>
          <lastUpdated value="2019-10-04T09:08:23.474+00:00"/>
          <source value="#f71b01e6bd51193c"/>
        </meta>
        <status value="completed"/>
        <statusReason>
          <coding>
            <system value="http://snomed.info/sct"/>
            <code value="182862001"/>
            <display value="Drug not taken - dislike taste"/>
          </coding>
        </statusReason>
        <category>
          <coding>
            <system value="http://terminology.hl7.org/CodeSystem/medication-statement-category"/>
            <code value="inpatient"/>
            <display value="Inpatient"/>
          </coding>
        </category>
        <medicationCodeableConcept>
          <coding>
            <system value="http://snomed.info/sct"/>
            <code value="261000"/>
            <display value="Codeine phosphate"/>
          </coding>
        </medicationCodeableConcept>
        <subject>
          <reference value="Patient/39089"/>
        </subject>
        <context>
          <reference value="Encounter/40354"/>
        </context>
        <effectivePeriod>
          <start value="2009-09-01T04:10:38.000+00:00"/>
          <end value="2009-09-01T04:10:38.000+00:00"/>
        </effectivePeriod>
        <dateAsserted value="2009-09-01T04:10:38"/>
        <reasonCode>
          <coding>
            <system value="http://snomed.info/sct"/>
            <code value="109006"/>
            <display value="Anxiety disorder of childhood OR adolescence"/>
          </coding>
        </reasonCode>
      </MedicationStatement>
    </resource>
    <search>
      <mode value="match"/>
    </search>
  </entry>
  <entry>
    <fullUrl value="http://hapi.fhir.org/baseR4/MedicationStatement/40349"/>
    <resource>
      <MedicationStatement>
        <id value="40349"/>
        <meta>
          <versionId value="1"/>
          <lastUpdated value="2019-10-04T09:04:41.380+00:00"/>
          <source value="#9eea2824a8433c8b"/>
        </meta>
        <status value="completed"/>
        <statusReason>
          <coding>
            <system value="http://snomed.info/sct"/>
            <code value="182862001"/>
            <display value="Drug not taken - dislike taste"/>
          </coding>
        </statusReason>
        <category>
          <coding>
            <system value="http://terminology.hl7.org/CodeSystem/medication-statement-category"/>
            <code value="inpatient"/>
            <display value="Inpatient"/>
          </coding>
        </category>
        <medicationCodeableConcept>
          <coding>
            <system value="http://snomed.info/sct"/>
            <code value="261000"/>
            <display value="Codeine phosphate"/>
          </coding>
        </medicationCodeableConcept>
        <subject>
          <reference value="Patient/39089"/>
        </subject>
        <context>
          <reference value="Encounter/40338"/>
        </context>
        <effectivePeriod>
          <start value="2009-09-01T04:10:38.000+00:00"/>
          <end value="2009-09-01T04:10:38.000+00:00"/>
        </effectivePeriod>
        <dateAsserted value="2009-09-01T04:10:38"/>
        <reasonCode>
          <coding>
            <system value="http://snomed.info/sct"/>
            <code value="109006"/>
            <display value="Anxiety disorder of childhood OR adolescence"/>
          </coding>
        </reasonCode>
      </MedicationStatement>
    </resource>
    <search>
      <mode value="match"/>
    </search>
  </entry>
  <entry>
    <fullUrl value="http://hapi.fhir.org/baseR4/MedicationStatement/40314"/>
    <resource>
      <MedicationStatement>
        <id value="40314"/>
        <meta>
          <versionId value="1"/>
          <lastUpdated value="2019-10-04T08:43:58.261+00:00"/>
          <source value="#34a70b8f54e87468"/>
        </meta>
        <status value="completed"/>
        <statusReason>
          <coding>
            <system value="http://snomed.info/sct"/>
            <code value="182862001"/>
            <display value="Drug not taken - dislike taste"/>
          </coding>
        </statusReason>
        <category>
          <coding>
            <system value="http://terminology.hl7.org/CodeSystem/medication-statement-category"/>
            <code value="inpatient"/>
            <display value="Inpatient"/>
          </coding>
        </category>
        <medicationCodeableConcept>
          <coding>
            <system value="http://snomed.info/sct"/>
            <code value="261000"/>
            <display value="Codeine phosphate"/>
          </coding>
        </medicationCodeableConcept>
        <subject>
          <reference value="Patient/39089"/>
        </subject>
        <context>
          <reference value="Encounter/40303"/>
        </context>
        <effectivePeriod>
          <start value="2009-09-01T04:10:38.000+00:00"/>
          <end value="2009-09-01T04:10:38.000+00:00"/>
        </effectivePeriod>
        <dateAsserted value="2009-09-01T04:10:38"/>
        <reasonCode>
          <coding>
            <system value="http://snomed.info/sct"/>
            <code value="109006"/>
            <display value="Anxiety disorder of childhood OR adolescence"/>
          </coding>
        </reasonCode>
      </MedicationStatement>
    </resource>
    <search>
      <mode value="match"/>
    </search>
  </entry>
  <entry>
    <fullUrl value="http://hapi.fhir.org/baseR4/MedicationStatement/40297"/>
    <resource>
      <MedicationStatement>
        <id value="40297"/>
        <meta>
          <versionId value="1"/>
          <lastUpdated value="2019-10-04T08:36:24.533+00:00"/>
          <source value="#45e5d1559dcf9840"/>
        </meta>
        <status value="completed"/>
        <statusReason>
          <coding>
            <system value="http://snomed.info/sct"/>
            <code value="182862001"/>
            <display value="Drug not taken - dislike taste"/>
          </coding>
        </statusReason>
        <category>
          <coding>
            <system value="http://terminology.hl7.org/CodeSystem/medication-statement-category"/>
            <code value="inpatient"/>
            <display value="Inpatient"/>
          </coding>
        </category>
        <medicationCodeableConcept>
          <coding>
            <system value="http://snomed.info/sct"/>
            <code value="261000"/>
            <display value="Codeine phosphate"/>
          </coding>
        </medicationCodeableConcept>
        <subject>
          <reference value="Patient/39089"/>
        </subject>
        <context>
          <reference value="Encounter/40286"/>
        </context>
        <effectivePeriod>
          <start value="2009-09-01T04:10:38.000+00:00"/>
          <end value="2009-09-01T04:10:38.000+00:00"/>
        </effectivePeriod>
        <dateAsserted value="2009-09-01T04:10:38"/>
        <reasonCode>
          <coding>
            <system value="http://snomed.info/sct"/>
            <code value="109006"/>
            <display value="Anxiety disorder of childhood OR adolescence"/>
          </coding>
        </reasonCode>
      </MedicationStatement>
    </resource>
    <search>
      <mode value="match"/>
    </search>
  </entry>
  <entry>
    <fullUrl value="http://hapi.fhir.org/baseR4/MedicationStatement/40281"/>
    <resource>
      <MedicationStatement>
        <id value="40281"/>
        <meta>
          <versionId value="1"/>
          <lastUpdated value="2019-10-04T08:34:54.112+00:00"/>
          <source value="#38f18f6e4c786da4"/>
        </meta>
        <status value="completed"/>
        <statusReason>
          <coding>
            <system value="http://snomed.info/sct"/>
            <code value="182862001"/>
            <display value="Drug not taken - dislike taste"/>
          </coding>
        </statusReason>
        <category>
          <coding>
            <system value="http://terminology.hl7.org/CodeSystem/medication-statement-category"/>
            <code value="inpatient"/>
            <display value="Inpatient"/>
          </coding>
        </category>
        <medicationCodeableConcept>
          <coding>
            <system value="http://snomed.info/sct"/>
            <code value="261000"/>
            <display value="Codeine phosphate"/>
          </coding>
        </medicationCodeableConcept>
        <subject>
          <reference value="Patient/39089"/>
        </subject>
        <context>
          <reference value="Encounter/40270"/>
        </context>
        <effectivePeriod>
          <start value="2009-09-01T04:10:38.000+00:00"/>
          <end value="2009-09-01T04:10:38.000+00:00"/>
        </effectivePeriod>
        <dateAsserted value="2009-09-01T04:10:38"/>
        <reasonCode>
          <coding>
            <system value="http://snomed.info/sct"/>
            <code value="109006"/>
            <display value="Anxiety disorder of childhood OR adolescence"/>
          </coding>
        </reasonCode>
      </MedicationStatement>
    </resource>
    <search>
      <mode value="match"/>
    </search>
  </entry>
  <entry>
    <fullUrl value="http://hapi.fhir.org/baseR4/MedicationStatement/39409"/>
    <resource>
      <MedicationStatement>
        <id value="39409"/>
        <meta>
          <versionId value="1"/>
          <lastUpdated value="2019-10-01T21:01:36.828+00:00"/>
          <source value="#7a775ee3f21600e7"/>
        </meta>
        <text>
          <status value="generated"/>
          <div>
            <p>Ventolin inhaler discontinued</p>
          </div>
        </text>
        <status value="active"/>
        <statusReason>
          <text value="Management of Asthma"/>
        </statusReason>
        <medicationCodeableConcept>
          <text value="Ventolin Inhaler"/>
        </medicationCodeableConcept>
        <subject>
          <reference value="http://fhir.healthintersections.com.au/open/Patient/1202"/>
          <display value="Peter Patient"/>
        </subject>
        <dateAsserted value="2013-05-05T16:13:03Z"/>
      </MedicationStatement>
    </resource>
    <search>
      <mode value="match"/>
    </search>
  </entry>
  <entry>
    <fullUrl value="http://hapi.fhir.org/baseR4/MedicationStatement/38148"/>
    <resource>
      <MedicationStatement>
        <id value="38148"/>
        <meta>
          <versionId value="1"/>
          <lastUpdated value="2019-09-30T14:54:48.893+00:00"/>
          <source value="#167a194e036e9a90"/>
        </meta>
        <contained>
          <Medication>
            <id value="med0309"/>
            <code>
              <coding>
                <system value="http://hl7.org/fhir/sid/ndc"/>
                <code value="76388-713-25"/>
                <display value="Myleran 2mg tablet, film coated"/>
              </coding>
            </code>
            <form>
              <coding>
                <system value="http://snomed.info/sct"/>
                <code value="385057009"/>
                <display value="Film-coated tablet (qualifier value)"/>
              </coding>
            </form>
            <ingredient>
              <itemCodeableConcept>
                <coding>
                  <system value="http://www.nlm.nih.gov/research/umls/rxnorm"/>
                  <code value="315266"/>
                  <display value="Myleran 500 MG"/>
                </coding>
              </itemCodeableConcept>
              <strength>
                <numerator>
                  <value value="2"/>
                  <system value="http://unitsofmeasure.org"/>
                  <code value="mg"/>
                </numerator>
                <denominator>
                  <value value="1"/>
                  <system value="http://terminology.hl7.org/CodeSystem/v3-orderableDrugForm"/>
                  <code value="Tab"/>
                </denominator>
              </strength>
            </ingredient>
            <ingredient>
              <itemCodeableConcept>
                <coding>
                  <system value="http://www.nlm.nih.gov/research/umls/rxnorm"/>
                  <code value="901813"/>
                  <display value="Diphenhydramine Hydrochloride 25 mg"/>
                </coding>
              </itemCodeableConcept>
              <strength>
                <numerator>
                  <value value="25"/>
                  <system value="http://unitsofmeasure.org"/>
                  <code value="mg"/>
                </numerator>
                <denominator>
                  <value value="1"/>
                  <system value="http://terminology.hl7.org/CodeSystem/v3-orderableDrugForm"/>
                  <code value="Tab"/>
                </denominator>
              </strength>
            </ingredient>
            <batch>
              <lotNumber value="9494788"/>
              <expirationDate value="2017-05-22"/>
            </batch>
          </Medication>
        </contained>
        <status value="active"/>
        <statusReason>
          <coding>
            <system value="http://snomed.info/sct"/>
            <code value="166643006"/>
            <display value="Liver enzymes abnormal"/>
          </coding>
        </statusReason>
        <medicationReference>
          <reference value="#med0309"/>
        </medicationReference>
        <subject>
          <reference value="Patient/37984"/>
          <display value="Murali A"/>
        </subject>
        <effectiveDateTime value="2015-01-23"/>
        <dateAsserted value="2015-02-22"/>
        <informationSource>
          <reference value="Patient/37984"/>
          <display value="Murali A"/>
        </informationSource>
        <note>
          <text value="Patient cannot take acetaminophen as per Dr instructions"/>
        </note>
      </MedicationStatement>
    </resource>
    <search>
      <mode value="match"/>
    </search>
  </entry>
  <entry>
    <fullUrl value="http://hapi.fhir.org/baseR4/MedicationStatement/38147"/>
    <resource>
      <MedicationStatement>
        <id value="38147"/>
        <meta>
          <versionId value="1"/>
          <lastUpdated value="2019-09-30T14:53:54.571+00:00"/>
          <source value="#b84327ada5c8fff8"/>
        </meta>
        <contained>
          <Medication>
            <id value="med0309"/>
            <code>
              <coding>
                <system value="http://hl7.org/fhir/sid/ndc"/>
                <code value="76388-713-25"/>
                <display value="Myleran 2mg tablet, film coated"/>
              </coding>
            </code>
            <form>
              <coding>
                <system value="http://snomed.info/sct"/>
                <code value="385057009"/>
                <display value="Film-coated tablet (qualifier value)"/>
              </coding>
            </form>
            <ingredient>
              <itemCodeableConcept>
                <coding>
                  <system value="http://www.nlm.nih.gov/research/umls/rxnorm"/>
                  <code value="315266"/>
                  <display value="Myleran 2 MG"/>
                </coding>
              </itemCodeableConcept>
              <strength>
                <numerator>
                  <value value="2"/>
                  <system value="http://unitsofmeasure.org"/>
                  <code value="mg"/>
                </numerator>
                <denominator>
                  <value value="1"/>
                  <system value="http://terminology.hl7.org/CodeSystem/v3-orderableDrugForm"/>
                  <code value="Tab"/>
                </denominator>
              </strength>
            </ingredient>
            <ingredient>
              <itemCodeableConcept>
                <coding>
                  <system value="http://www.nlm.nih.gov/research/umls/rxnorm"/>
                  <code value="901813"/>
                  <display value="Diphenhydramine Hydrochloride 25 mg"/>
                </coding>
              </itemCodeableConcept>
              <strength>
                <numerator>
                  <value value="25"/>
                  <system value="http://unitsofmeasure.org"/>
                  <code value="mg"/>
                </numerator>
                <denominator>
                  <value value="1"/>
                  <system value="http://terminology.hl7.org/CodeSystem/v3-orderableDrugForm"/>
                  <code value="Tab"/>
                </denominator>
              </strength>
            </ingredient>
            <batch>
              <lotNumber value="9494788"/>
              <expirationDate value="2017-05-22"/>
            </batch>
          </Medication>
        </contained>
        <status value="active"/>
        <statusReason>
          <coding>
            <system value="http://snomed.info/sct"/>
            <code value="166643006"/>
            <display value="Liver enzymes abnormal"/>
          </coding>
        </statusReason>
        <medicationReference>
          <reference value="#med0309"/>
        </medicationReference>
        <subject>
          <reference value="Patient/37983"/>
          <display value="Harshil N"/>
        </subject>
        <effectiveDateTime value="2015-01-23"/>
        <dateAsserted value="2015-02-22"/>
        <informationSource>
          <reference value="Patient/37983"/>
          <display value="Harshil N"/>
        </informationSource>
        <note>
          <text value="Patient cannot take acetaminophen as per Dr instructions"/>
        </note>
      </MedicationStatement>
    </resource>
    <search>
      <mode value="match"/>
    </search>
  </entry>
  <entry>
    <fullUrl value="http://hapi.fhir.org/baseR4/MedicationStatement/38145"/>
    <resource>
      <MedicationStatement>
        <id value="38145"/>
        <meta>
          <versionId value="1"/>
          <lastUpdated value="2019-09-30T14:51:42.190+00:00"/>
          <source value="#1ea73d72df699528"/>
        </meta>
        <contained>
          <Medication>
            <id value="med0309"/>
            <code>
              <coding>
                <system value="http://hl7.org/fhir/sid/ndc"/>
                <code value="50580-506-02"/>
                <display value="Poshdbnhdx WA 100mg"/>
              </coding>
            </code>
            <form>
              <coding>
                <system value="http://snomed.info/sct"/>
                <code value="385057009"/>
                <display value="Film-coated tablet (qualifier value)"/>
              </coding>
            </form>
            <ingredient>
              <itemCodeableConcept>
                <coding>
                  <system value="http://www.nlm.nih.gov/research/umls/rxnorm"/>
                  <code value="315266"/>
                  <display value="Acetaminophen 500 MG"/>
                </coding>
              </itemCodeableConcept>
              <strength>
                <numerator>
                  <value value="500"/>
                  <system value="http://unitsofmeasure.org"/>
                  <code value="mg"/>
                </numerator>
                <denominator>
                  <value value="1"/>
                  <system value="http://terminology.hl7.org/CodeSystem/v3-orderableDrugForm"/>
                  <code value="Tab"/>
                </denominator>
              </strength>
            </ingredient>
            <ingredient>
              <itemCodeableConcept>
                <coding>
                  <system value="http://www.nlm.nih.gov/research/umls/rxnorm"/>
                  <code value="901813"/>
                  <display value="Diphenhydramine Hydrochloride 25 mg"/>
                </coding>
              </itemCodeableConcept>
              <strength>
                <numerator>
                  <value value="25"/>
                  <system value="http://unitsofmeasure.org"/>
                  <code value="mg"/>
                </numerator>
                <denominator>
                  <value value="1"/>
                  <system value="http://terminology.hl7.org/CodeSystem/v3-orderableDrugForm"/>
                  <code value="Tab"/>
                </denominator>
              </strength>
            </ingredient>
            <batch>
              <lotNumber value="9494788"/>
              <expirationDate value="2017-05-22"/>
            </batch>
          </Medication>
        </contained>
        <status value="active"/>
        <statusReason>
          <coding>
            <system value="http://snomed.info/sct"/>
            <code value="166643006"/>
            <display value="Heart abnormal"/>
          </coding>
        </statusReason>
        <medicationReference>
          <reference value="#med0309"/>
        </medicationReference>
        <subject>
          <reference value="Patient/37982"/>
          <display value="Pratik B"/>
        </subject>
        <effectiveDateTime value="2015-01-23"/>
        <dateAsserted value="2015-02-22"/>
        <informationSource>
          <reference value="Patient/37982"/>
          <display value="Pratik B"/>
        </informationSource>
        <note>
          <text value="Patient cannot take acetaminophen as per Dr instructions"/>
        </note>
      </MedicationStatement>
    </resource>
    <search>
      <mode value="match"/>
    </search>
  </entry>
  <entry>
    <fullUrl value="http://hapi.fhir.org/baseR4/MedicationStatement/38143"/>
    <resource>
      <MedicationStatement>
        <id value="38143"/>
        <meta>
          <versionId value="1"/>
          <lastUpdated value="2019-09-30T14:49:53.592+00:00"/>
          <source value="#f3c00b89aa7ecc69"/>
        </meta>
        <contained>
          <Medication>
            <id value="med0309"/>
            <code>
              <coding>
                <system value="http://hl7.org/fhir/sid/ndc"/>
                <code value="50580-506-02"/>
                <display value="Poshdbnhdx QW 100mg"/>
              </coding>
            </code>
            <form>
              <coding>
                <system value="http://snomed.info/sct"/>
                <code value="385057009"/>
                <display value="Film-coated tablet (qualifier value)"/>
              </coding>
            </form>
            <ingredient>
              <itemCodeableConcept>
                <coding>
                  <system value="http://www.nlm.nih.gov/research/umls/rxnorm"/>
                  <code value="315266"/>
                  <display value="Acetaminophen 500 MG"/>
                </coding>
              </itemCodeableConcept>
              <strength>
                <numerator>
                  <value value="500"/>
                  <system value="http://unitsofmeasure.org"/>
                  <code value="mg"/>
                </numerator>
                <denominator>
                  <value value="1"/>
                  <system value="http://terminology.hl7.org/CodeSystem/v3-orderableDrugForm"/>
                  <code value="Tab"/>
                </denominator>
              </strength>
            </ingredient>
            <ingredient>
              <itemCodeableConcept>
                <coding>
                  <system value="http://www.nlm.nih.gov/research/umls/rxnorm"/>
                  <code value="901813"/>
                  <display value="Diphenhydramine Hydrochloride 25 mg"/>
                </coding>
              </itemCodeableConcept>
              <strength>
                <numerator>
                  <value value="25"/>
                  <system value="http://unitsofmeasure.org"/>
                  <code value="mg"/>
                </numerator>
                <denominator>
                  <value value="1"/>
                  <system value="http://terminology.hl7.org/CodeSystem/v3-orderableDrugForm"/>
                  <code value="Tab"/>
                </denominator>
              </strength>
            </ingredient>
            <batch>
              <lotNumber value="9494788"/>
              <expirationDate value="2017-05-22"/>
            </batch>
          </Medication>
        </contained>
        <status value="active"/>
        <statusReason>
          <coding>
            <system value="http://snomed.info/sct"/>
            <code value="166643006"/>
            <display value="Liver enzymes abnormal"/>
          </coding>
        </statusReason>
        <medicationReference>
          <reference value="#med0309"/>
        </medicationReference>
        <subject>
          <reference value="Patient/37981"/>
          <display value="Smita S"/>
        </subject>
        <effectiveDateTime value="2015-01-23"/>
        <dateAsserted value="2015-02-22"/>
        <informationSource>
          <reference value="Patient/37981"/>
          <display value="Smita S"/>
        </informationSource>
        <note>
          <text value="Patient cannot take acetaminophen as per Dr instructions"/>
        </note>
      </MedicationStatement>
    </resource>
    <search>
      <mode value="match"/>
    </search>
  </entry>
  <entry>
    <fullUrl value="http://hapi.fhir.org/baseR4/MedicationStatement/38142"/>
    <resource>
      <MedicationStatement>
        <id value="38142"/>
        <meta>
          <versionId value="1"/>
          <lastUpdated value="2019-09-30T14:48:08.450+00:00"/>
          <source value="#fbe31761226eb6cc"/>
        </meta>
        <contained>
          <Medication>
            <id value="med0309"/>
            <code>
              <coding>
                <system value="http://hl7.org/fhir/sid/ndc"/>
                <code value="50580-506-02"/>
                <display value="Tylenol PM"/>
              </coding>
            </code>
            <form>
              <coding>
                <system value="http://snomed.info/sct"/>
                <code value="385057009"/>
                <display value="Film-coated tablet (qualifier value)"/>
              </coding>
            </form>
            <ingredient>
              <itemCodeableConcept>
                <coding>
                  <system value="http://www.nlm.nih.gov/research/umls/rxnorm"/>
                  <code value="315266"/>
                  <display value="Acetaminophen 500 MG"/>
                </coding>
              </itemCodeableConcept>
              <strength>
                <numerator>
                  <value value="500"/>
                  <system value="http://unitsofmeasure.org"/>
                  <code value="mg"/>
                </numerator>
                <denominator>
                  <value value="1"/>
                  <system value="http://terminology.hl7.org/CodeSystem/v3-orderableDrugForm"/>
                  <code value="Tab"/>
                </denominator>
              </strength>
            </ingredient>
            <ingredient>
              <itemCodeableConcept>
                <coding>
                  <system value="http://www.nlm.nih.gov/research/umls/rxnorm"/>
                  <code value="901813"/>
                  <display value="Diphenhydramine Hydrochloride 25 mg"/>
                </coding>
              </itemCodeableConcept>
              <strength>
                <numerator>
                  <value value="25"/>
                  <system value="http://unitsofmeasure.org"/>
                  <code value="mg"/>
                </numerator>
                <denominator>
                  <value value="1"/>
                  <system value="http://terminology.hl7.org/CodeSystem/v3-orderableDrugForm"/>
                  <code value="Tab"/>
                </denominator>
              </strength>
            </ingredient>
            <batch>
              <lotNumber value="9494788"/>
              <expirationDate value="2017-05-22"/>
            </batch>
          </Medication>
        </contained>
        <status value="active"/>
        <statusReason>
          <coding>
            <system value="http://snomed.info/sct"/>
            <code value="166643006"/>
            <display value="Liver enzymes abnormal"/>
          </coding>
        </statusReason>
        <medicationReference>
          <reference value="#med0309"/>
        </medicationReference>
        <subject>
          <reference value="Patient/37960"/>
          <display value="Priyaka Patil"/>
        </subject>
        <effectiveDateTime value="2015-01-23"/>
        <dateAsserted value="2015-02-22"/>
        <informationSource>
          <reference value="Patient/37960"/>
          <display value="Priyaka Patil"/>
        </informationSource>
        <note>
          <text value="Patient cannot take acetaminophen as per Dr instructions"/>
        </note>
      </MedicationStatement>
    </resource>
    <search>
      <mode value="match"/>
    </search>
  </entry>
  <entry>
    <fullUrl value="http://hapi.fhir.org/baseR4/Patient/37984"/>
    <resource>
      <Patient>
        <id value="37984"/>
        <meta>
          <versionId value="1"/>
          <lastUpdated value="2019-09-30T11:11:51.453+00:00"/>
          <source value="#0fe847e595d976f0"/>
        </meta>
        <text>
          <status value="generated"/>
          <div>
            <div class="hapiHeaderText">A 
                     <b>Murali </b> 
                  </div>
            <table class="hapiPropertyTable">
              <tbody>
                <tr>
                  <td>Identifier</td>
                  <td>6d9dfc74-fd13-4784-b38e-8dc69e43a97d</td>
                </tr>
              </tbody>
            </table>
          </div>
        </text>
        <identifier>
          <type>
            <coding>
              <system value="http://hl7.org/fhir/v2/0203"/>
              <code value="Mr"/>
            </coding>
          </type>
          <value value="6d9dfc74-fd13-4784-b38e-8dc69e43a97d"/>
        </identifier>
        <name>
          <family value="Murali "/>
          <given value="A"/>
        </name>
        <gender value="male"/>
        <birthDate value="1986-07-10"/>
        <generalPractitioner>
          <reference value="Practitioner/1385"/>
          <display value="Roshni-General Practitioner"/>
        </generalPractitioner>
      </Patient>
    </resource>
    <search>
      <mode value="include"/>
    </search>
  </entry>
  <entry>
    <fullUrl value="http://hapi.fhir.org/baseR4/Encounter/40354"/>
    <resource>
      <Encounter>
        <id value="40354"/>
        <meta>
          <versionId value="1"/>
          <lastUpdated value="2019-10-04T09:08:23.474+00:00"/>
          <source value="#f71b01e6bd51193c"/>
        </meta>
        <identifier>
          <use value="official"/>
          <type>
            <coding>
              <system value="http://terminology.hl7.org/CodeSystem/v2-0203"/>
              <code value="MR"/>
              <display value="Medical record number"/>
            </coding>
          </type>
          <value value="12345777"/>
        </identifier>
        <status value="finished"/>
        <class>
          <code value="inpatient"/>
        </class>
        <priority>
          <coding>
            <system value="http://terminology.hl7.org/CodeSystem/v3-ActPriority"/>
            <code value="EL"/>
            <display value="elective"/>
          </coding>
        </priority>
        <subject>
          <reference value="Patient/39089"/>
          <display value="LN3062 FN3062 MN3062"/>
        </subject>
        <participant>
          <individual>
            <reference value="Practitioner/1472"/>
          </individual>
        </participant>
        <participant>
          <individual>
            <reference value="Practitioner/1473"/>
          </individual>
        </participant>
        <participant>
          <individual>
            <reference value="Practitioner/1474"/>
          </individual>
        </participant>
        <participant>
          <individual>
            <reference value="Practitioner/1475"/>
          </individual>
        </participant>
        <period>
          <start value="2010-11-11T11:12:14.456+07:00"/>
          <end value="2010-11-11T11:12:14.456+07:00"/>
        </period>
        <reasonCode>
          <coding>
            <system value="http://snomed.info/sct"/>
            <code value="109006"/>
            <display value="Anxiety disorder of childhood OR adolescence (disorder)"/>
          </coding>
        </reasonCode>
        <hospitalization>
          <preAdmissionIdentifier>
            <use value="official"/>
            <value value="1234"/>
          </preAdmissionIdentifier>
          <admitSource>
            <coding>
              <system value="http://terminology.hl7.org/CodeSystem/admit-source"/>
              <code value="hosp-trans"/>
              <display value="Transferred from other hospital"/>
            </coding>
          </admitSource>
          <reAdmission>
            <coding>
              <userSelected value="true"/>
            </coding>
          </reAdmission>
          <dietPreference>
            <coding>
              <system value="http://terminology.hl7.org/CodeSystem/diet"/>
              <code value="vegetarian"/>
              <display value="Vegetarian"/>
            </coding>
          </dietPreference>
          <dischargeDisposition>
            <coding>
              <system value="http://terminology.hl7.org/CodeSystem/discharge-disposition"/>
              <code value="aadvice"/>
              <display value="Left against advice"/>
            </coding>
          </dischargeDisposition>
        </hospitalization>
        <location>
          <location>
            <reference value="Location/40352"/>
          </location>
          <physicalType>
            <coding>
              <system value="http://terminology.hl7.org/CodeSystem/location-physical-type"/>
              <code value="bu"/>
              <display value="Building"/>
            </coding>
          </physicalType>
        </location>
        <serviceProvider>
          <reference value="Organization/185"/>
        </serviceProvider>
      </Encounter>
    </resource>
    <search>
      <mode value="include"/>
    </search>
  </entry>
  <entry>
    <fullUrl value="http://hapi.fhir.org/baseR4/Encounter/40386"/>
    <resource>
      <Encounter>
        <id value="40386"/>
        <meta>
          <versionId value="1"/>
          <lastUpdated value="2019-10-04T09:20:21.301+00:00"/>
          <source value="#e7dc74e5ae2b4ef6"/>
        </meta>
        <identifier>
          <use value="official"/>
          <type>
            <coding>
              <system value="http://terminology.hl7.org/CodeSystem/v2-0203"/>
              <code value="MR"/>
              <display value="Medical record number"/>
            </coding>
          </type>
          <value value="12345777"/>
        </identifier>
        <status value="finished"/>
        <class>
          <code value="inpatient"/>
        </class>
        <priority>
          <coding>
            <system value="http://terminology.hl7.org/CodeSystem/v3-ActPriority"/>
            <code value="EL"/>
            <display value="elective"/>
          </coding>
        </priority>
        <subject>
          <reference value="Patient/39089"/>
          <display value="LN3062 FN3062 MN3062"/>
        </subject>
        <participant>
          <individual>
            <reference value="Practitioner/1472"/>
          </individual>
        </participant>
        <participant>
          <individual>
            <reference value="Practitioner/1473"/>
          </individual>
        </participant>
        <participant>
          <individual>
            <reference value="Practitioner/1474"/>
          </individual>
        </participant>
        <participant>
          <individual>
            <reference value="Practitioner/1475"/>
          </individual>
        </participant>
        <period>
          <start value="2010-11-11T11:12:14.456+07:00"/>
          <end value="2010-11-11T11:12:14.456+07:00"/>
        </period>
        <reasonCode>
          <coding>
            <system value="http://snomed.info/sct"/>
            <code value="109006"/>
            <display value="Anxiety disorder of childhood OR adolescence (disorder)"/>
          </coding>
        </reasonCode>
        <hospitalization>
          <preAdmissionIdentifier>
            <use value="official"/>
            <value value="1234"/>
          </preAdmissionIdentifier>
          <admitSource>
            <coding>
              <system value="http://terminology.hl7.org/CodeSystem/admit-source"/>
              <code value="hosp-trans"/>
              <display value="Transferred from other hospital"/>
            </coding>
          </admitSource>
          <reAdmission>
            <coding>
              <userSelected value="true"/>
            </coding>
          </reAdmission>
          <dietPreference>
            <coding>
              <system value="http://terminology.hl7.org/CodeSystem/diet"/>
              <code value="vegetarian"/>
              <display value="Vegetarian"/>
            </coding>
          </dietPreference>
          <dischargeDisposition>
            <coding>
              <system value="http://terminology.hl7.org/CodeSystem/discharge-disposition"/>
              <code value="aadvice"/>
              <display value="Left against advice"/>
            </coding>
          </dischargeDisposition>
        </hospitalization>
        <location>
          <location>
            <reference value="Location/40384"/>
          </location>
          <physicalType>
            <coding>
              <system value="http://terminology.hl7.org/CodeSystem/location-physical-type"/>
              <code value="bu"/>
              <display value="Building"/>
            </coding>
          </physicalType>
        </location>
        <serviceProvider>
          <reference value="Organization/185"/>
        </serviceProvider>
      </Encounter>
    </resource>
    <search>
      <mode value="include"/>
    </search>
  </entry>
  <entry>
    <fullUrl value="http://hapi.fhir.org/baseR4/Encounter/40418"/>
    <resource>
      <Encounter>
        <id value="40418"/>
        <meta>
          <versionId value="1"/>
          <lastUpdated value="2019-10-04T09:33:42.949+00:00"/>
          <source value="#8ebd18e9ce17c165"/>
        </meta>
        <identifier>
          <use value="official"/>
          <type>
            <coding>
              <system value="http://terminology.hl7.org/CodeSystem/v2-0203"/>
              <code value="MR"/>
              <display value="Medical record number"/>
            </coding>
          </type>
          <value value="12345777"/>
        </identifier>
        <status value="finished"/>
        <class>
          <code value="inpatient"/>
        </class>
        <priority>
          <coding>
            <system value="http://terminology.hl7.org/CodeSystem/v3-ActPriority"/>
            <code value="EL"/>
            <display value="elective"/>
          </coding>
        </priority>
        <subject>
          <reference value="Patient/39089"/>
          <display value="LN3062 FN3062 MN3062"/>
        </subject>
        <participant>
          <individual>
            <reference value="Practitioner/1472"/>
          </individual>
        </participant>
        <participant>
          <individual>
            <reference value="Practitioner/1473"/>
          </individual>
        </participant>
        <participant>
          <individual>
            <reference value="Practitioner/1474"/>
          </individual>
        </participant>
        <participant>
          <individual>
            <reference value="Practitioner/1475"/>
          </individual>
        </participant>
        <period>
          <start value="2010-11-11T11:12:14.456+07:00"/>
          <end value="2010-11-11T11:12:14.456+07:00"/>
        </period>
        <reasonCode>
          <coding>
            <system value="http://snomed.info/sct"/>
            <code value="109006"/>
            <display value="Anxiety disorder of childhood OR adolescence (disorder)"/>
          </coding>
        </reasonCode>
        <hospitalization>
          <preAdmissionIdentifier>
            <use value="official"/>
            <value value="1234"/>
          </preAdmissionIdentifier>
          <admitSource>
            <coding>
              <system value="http://terminology.hl7.org/CodeSystem/admit-source"/>
              <code value="hosp-trans"/>
              <display value="Transferred from other hospital"/>
            </coding>
          </admitSource>
          <reAdmission>
            <coding>
              <userSelected value="true"/>
            </coding>
          </reAdmission>
          <dietPreference>
            <coding>
              <system value="http://terminology.hl7.org/CodeSystem/diet"/>
              <code value="vegetarian"/>
              <display value="Vegetarian"/>
            </coding>
          </dietPreference>
          <dischargeDisposition>
            <coding>
              <system value="http://terminology.hl7.org/CodeSystem/discharge-disposition"/>
              <code value="aadvice"/>
              <display value="Left against advice"/>
            </coding>
          </dischargeDisposition>
        </hospitalization>
        <location>
          <location>
            <reference value="Location/40416"/>
          </location>
          <physicalType>
            <coding>
              <system value="http://terminology.hl7.org/CodeSystem/location-physical-type"/>
              <code value="bu"/>
              <display value="Building"/>
            </coding>
          </physicalType>
        </location>
        <serviceProvider>
          <reference value="Organization/185"/>
        </serviceProvider>
      </Encounter>
    </resource>
    <search>
      <mode value="include"/>
    </search>
  </entry>
  <entry>
    <fullUrl value="http://hapi.fhir.org/baseR4/Patient/37960"/>
    <resource>
      <Patient>
        <id value="37960"/>
        <meta>
          <versionId value="1"/>
          <lastUpdated value="2019-09-30T09:59:03.450+00:00"/>
          <source value="#d377b79714c9b2a5"/>
        </meta>
        <text>
          <status value="generated"/>
          <div>
            <div class="hapiHeaderText">patil 
                     <b>Priya </b> 
                  </div>
            <table class="hapiPropertyTable">
              <tbody>
                <tr>
                  <td>Identifier</td>
                  <td>6d9dfc74-fd13-4784-b38e-8dc69e43a97d</td>
                </tr>
              </tbody>
            </table>
          </div>
        </text>
        <identifier>
          <type>
            <coding>
              <system value="http://hl7.org/fhir/v2/0203"/>
              <code value="Ms"/>
            </coding>
          </type>
          <value value="6d9dfc74-fd13-4784-b38e-8dc69e43a97d"/>
        </identifier>
        <name>
          <family value="Priyanka"/>
          <given value="patil"/>
        </name>
        <gender value="female"/>
        <birthDate value="1990-03-19"/>
        <generalPractitioner>
          <reference value="Practitioner/1385"/>
          <display value="Roshni-General Practitioner"/>
        </generalPractitioner>
      </Patient>
    </resource>
    <search>
      <mode value="include"/>
    </search>
  </entry>
  <entry>
    <fullUrl value="http://hapi.fhir.org/baseR4/Encounter/40270"/>
    <resource>
      <Encounter>
        <id value="40270"/>
        <meta>
          <versionId value="1"/>
          <lastUpdated value="2019-10-04T08:34:54.112+00:00"/>
          <source value="#38f18f6e4c786da4"/>
        </meta>
        <identifier>
          <use value="official"/>
          <type>
            <coding>
              <system value="http://terminology.hl7.org/CodeSystem/v2-0203"/>
              <code value="MR"/>
              <display value="Medical record number"/>
            </coding>
          </type>
          <value value="12345777"/>
        </identifier>
        <status value="finished"/>
        <class>
          <code value="inpatient"/>
        </class>
        <priority>
          <coding>
            <system value="http://terminology.hl7.org/CodeSystem/v3-ActPriority"/>
            <code value="EL"/>
            <display value="elective"/>
          </coding>
        </priority>
        <subject>
          <reference value="Patient/39089"/>
          <display value="LN3062 FN3062 MN3062"/>
        </subject>
        <participant>
          <individual>
            <reference value="Practitioner/1472"/>
          </individual>
        </participant>
        <participant>
          <individual>
            <reference value="Practitioner/1473"/>
          </individual>
        </participant>
        <participant>
          <individual>
            <reference value="Practitioner/1474"/>
          </individual>
        </participant>
        <participant>
          <individual>
            <reference value="Practitioner/1475"/>
          </individual>
        </participant>
        <period>
          <start value="2010-11-11T11:12:14.456+07:00"/>
          <end value="2010-11-11T11:12:14.456+07:00"/>
        </period>
        <reasonCode>
          <coding>
            <system value="http://snomed.info/sct"/>
            <code value="109006"/>
            <display value="Anxiety disorder of childhood OR adolescence (disorder)"/>
          </coding>
        </reasonCode>
        <hospitalization>
          <preAdmissionIdentifier>
            <use value="official"/>
            <value value="1234"/>
          </preAdmissionIdentifier>
          <admitSource>
            <coding>
              <system value="http://terminology.hl7.org/CodeSystem/admit-source"/>
              <code value="hosp-trans"/>
              <display value="Transferred from other hospital"/>
            </coding>
          </admitSource>
          <reAdmission>
            <coding>
              <userSelected value="true"/>
            </coding>
          </reAdmission>
          <dietPreference>
            <coding>
              <system value="http://terminology.hl7.org/CodeSystem/diet"/>
              <code value="vegetarian"/>
              <display value="Vegetarian"/>
            </coding>
          </dietPreference>
          <dischargeDisposition>
            <coding>
              <system value="http://terminology.hl7.org/CodeSystem/discharge-disposition"/>
              <code value="aadvice"/>
              <display value="Left against advice"/>
            </coding>
          </dischargeDisposition>
        </hospitalization>
        <location>
          <location>
            <reference value="Location/40268"/>
          </location>
          <physicalType>
            <coding>
              <system value="http://terminology.hl7.org/CodeSystem/location-physical-type"/>
              <code value="bu"/>
              <display value="Building"/>
            </coding>
          </physicalType>
        </location>
        <serviceProvider>
          <reference value="Organization/185"/>
        </serviceProvider>
      </Encounter>
    </resource>
    <search>
      <mode value="include"/>
    </search>
  </entry>
  <entry>
    <fullUrl value="http://hapi.fhir.org/baseR4/Encounter/40303"/>
    <resource>
      <Encounter>
        <id value="40303"/>
        <meta>
          <versionId value="1"/>
          <lastUpdated value="2019-10-04T08:43:58.261+00:00"/>
          <source value="#34a70b8f54e87468"/>
        </meta>
        <identifier>
          <use value="official"/>
          <type>
            <coding>
              <system value="http://terminology.hl7.org/CodeSystem/v2-0203"/>
              <code value="MR"/>
              <display value="Medical record number"/>
            </coding>
          </type>
          <value value="12345777"/>
        </identifier>
        <status value="finished"/>
        <class>
          <code value="inpatient"/>
        </class>
        <priority>
          <coding>
            <system value="http://terminology.hl7.org/CodeSystem/v3-ActPriority"/>
            <code value="EL"/>
            <display value="elective"/>
          </coding>
        </priority>
        <subject>
          <reference value="Patient/39089"/>
          <display value="LN3062 FN3062 MN3062"/>
        </subject>
        <participant>
          <individual>
            <reference value="Practitioner/1472"/>
          </individual>
        </participant>
        <participant>
          <individual>
            <reference value="Practitioner/1473"/>
          </individual>
        </participant>
        <participant>
          <individual>
            <reference value="Practitioner/1474"/>
          </individual>
        </participant>
        <participant>
          <individual>
            <reference value="Practitioner/1475"/>
          </individual>
        </participant>
        <period>
          <start value="2010-11-11T11:12:14.456+07:00"/>
          <end value="2010-11-11T11:12:14.456+07:00"/>
        </period>
        <reasonCode>
          <coding>
            <system value="http://snomed.info/sct"/>
            <code value="109006"/>
            <display value="Anxiety disorder of childhood OR adolescence (disorder)"/>
          </coding>
        </reasonCode>
        <hospitalization>
          <preAdmissionIdentifier>
            <use value="official"/>
            <value value="1234"/>
          </preAdmissionIdentifier>
          <admitSource>
            <coding>
              <system value="http://terminology.hl7.org/CodeSystem/admit-source"/>
              <code value="hosp-trans"/>
              <display value="Transferred from other hospital"/>
            </coding>
          </admitSource>
          <reAdmission>
            <coding>
              <userSelected value="true"/>
            </coding>
          </reAdmission>
          <dietPreference>
            <coding>
              <system value="http://terminology.hl7.org/CodeSystem/diet"/>
              <code value="vegetarian"/>
              <display value="Vegetarian"/>
            </coding>
          </dietPreference>
          <dischargeDisposition>
            <coding>
              <system value="http://terminology.hl7.org/CodeSystem/discharge-disposition"/>
              <code value="aadvice"/>
              <display value="Left against advice"/>
            </coding>
          </dischargeDisposition>
        </hospitalization>
        <location>
          <location>
            <reference value="Location/40301"/>
          </location>
          <physicalType>
            <coding>
              <system value="http://terminology.hl7.org/CodeSystem/location-physical-type"/>
              <code value="bu"/>
              <display value="Building"/>
            </coding>
          </physicalType>
        </location>
        <serviceProvider>
          <reference value="Organization/185"/>
        </serviceProvider>
      </Encounter>
    </resource>
    <search>
      <mode value="include"/>
    </search>
  </entry>
  <entry>
    <fullUrl value="http://hapi.fhir.org/baseR4/Patient/39089"/>
    <resource>
      <Patient>
        <id value="39089"/>
        <meta>
          <versionId value="1"/>
          <lastUpdated value="2019-10-01T10:53:20.578+00:00"/>
          <source value="#65be93fc3146e3e8"/>
        </meta>
        <text>
          <status value="generated"/>
          <div>
            <div class="hapiHeaderText">FN3062 MN3062 
                     <b>LN3062 </b>
                  </div>
            <table class="hapiPropertyTable">
              <tbody>
                <tr>
                  <td>Identifier</td>
                  <td>shwetha1</td>
                </tr>
                <tr>
                  <td>Address</td>
                  <td>
                    <span>Street comp1 comp2 </span>
                    <br/>
                    <span>AddLine2 </span>
                    <br/>
                    <span>Seattle </span>
                    <span>WA </span>
                    <span>USA </span>
                  </td>
                </tr>
                <tr>
                  <td>Date of birth</td>
                  <td>
                    <span>10 October 2001</span>
                  </td>
                </tr>
              </tbody>
            </table>
          </div>
        </text>
        <identifier>
          <use value="usual"/>
          <type>
            <coding>
              <system value="http://terminology.hl7.org/CodeSystem/v2-0203"/>
              <code value="MR"/>
              <display value="Medical record number"/>
            </coding>
          </type>
          <system value="http://hl7.org/fhir/identifier-type"/>
          <value value="shwetha1"/>
        </identifier>
        <identifier>
          <use value="official"/>
          <type>
            <coding>
              <system value="http://terminology.hl7.org/CodeSystem/v2-0203"/>
              <code value="PLAC"/>
              <display value="Placer Identifier"/>
            </coding>
          </type>
          <system value="http://hl7.org/fhir/identifier-type"/>
          <value value="23062"/>
        </identifier>
        <identifier>
          <use value="official"/>
          <type>
            <coding>
              <system value="http://terminology.hl7.org/CodeSystem/v2-0203"/>
              <code value="PRN"/>
              <display value="Provider number"/>
            </coding>
          </type>
          <system value="http://hl7.org/fhir/sid/us-ssn"/>
          <value value="111222333"/>
        </identifier>
        <identifier>
          <use value="secondary"/>
          <type>
            <coding>
              <system value="http://terminology.hl7.org/CodeSystem/v2-0203"/>
              <code value="SNO"/>
              <display value="Serial Number"/>
            </coding>
          </type>
          <system value="http://hl7.org/fhir/identifier-type"/>
          <value value="2333"/>
        </identifier>
        <identifier>
          <use value="official"/>
          <type>
            <coding>
              <system value="http://terminology.hl7.org/CodeSystem/v2-0203"/>
              <code value="FILL"/>
              <display value="Filler Identifier"/>
            </coding>
          </type>
          <system value="https://radboud.nl/id"/>
          <value value="11111111111"/>
        </identifier>
        <identifier>
          <use value="official"/>
          <type>
            <coding>
              <system value="http://terminology.hl7.org/CodeSystem/v2-0203"/>
              <code value="DL"/>
              <display value="Driver's license number"/>
            </coding>
          </type>
          <system value="https://radboud.nl/identifiers/PatientIdentifier"/>
          <value value="33333333333"/>
        </identifier>
        <name>
          <use value="usual"/>
          <family value="LN3062"/>
          <given value="FN3062"/>
          <given value="MN3062"/>
        </name>
        <name>
          <use value="usual"/>
          <family value="Test"/>
          <given value="Test"/>
        </name>
        <telecom>
          <system value="phone"/>
          <value value="123-456-1111"/>
          <use value="home"/>
        </telecom>
        <telecom>
          <system value="phone"/>
          <value value="098-765-1111"/>
          <use value="work"/>
        </telecom>
        <telecom>
          <system value="email"/>
          <use value="home"/>
        </telecom>
        <telecom>
          <system value="email"/>
          <use value="work"/>
        </telecom>
        <gender value="male"/>
        <birthDate value="2001-10-10"/>
        <deceasedDateTime value="2010-11-11T11:12:14.000+05:30"/>
        <address>
          <use value="home"/>
          <line value="Street comp1 comp2"/>
          <line value="AddLine2"/>
          <city value="Seattle"/>
          <state value="WA"/>
          <postalCode value="98052"/>
          <country value="USA"/>
        </address>
        <maritalStatus>
          <coding>
            <system value="http://terminology.hl7.org/CodeSystem/v3-MaritalStatus"/>
            <code value="M"/>
            <display value="Married"/>
          </coding>
        </maritalStatus>
        <multipleBirthInteger value="2"/>
        <contact>
          <relationship>
            <coding>
              <system value="http://terminology.hl7.org/CodeSystem/v2-0131"/>
              <code value="N"/>
              <display value="Next-of-Kin"/>
            </coding>
          </relationship>
          <name>
            <family value="Jones"/>
            <given value="Sally"/>
            <given value="Andy"/>
          </name>
          <telecom>
            <system value="phone"/>
            <value value="123-456-1111"/>
            <use value="home"/>
          </telecom>
          <telecom>
            <system value="phone"/>
            <value value="321-654-2222"/>
            <use value="work"/>
          </telecom>
          <address>
            <use value="home"/>
            <line value="Street comp1 comp2"/>
            <line value="AddLine2"/>
            <city value="Seattle"/>
            <state value="WA"/>
            <postalCode value="98052"/>
            <country value="USA"/>
          </address>
          <gender value="female"/>
          <organization>
            <reference value="Organization/185"/>
          </organization>
        </contact>
        <communication>
          <language>
            <coding>
              <system value="urn:ietf:bcp:47"/>
              <code value="en"/>
              <display value="English"/>
            </coding>
          </language>
        </communication>
        <managingOrganization>
          <reference value="Organization/185"/>
        </managingOrganization>
      </Patient>
    </resource>
    <search>
      <mode value="include"/>
    </search>
  </entry>
  <entry>
    <fullUrl value="http://hapi.fhir.org/baseR4/Encounter/40338"/>
    <resource>
      <Encounter>
        <id value="40338"/>
        <meta>
          <versionId value="1"/>
          <lastUpdated value="2019-10-04T09:04:41.380+00:00"/>
          <source value="#9eea2824a8433c8b"/>
        </meta>
        <identifier>
          <use value="official"/>
          <type>
            <coding>
              <system value="http://terminology.hl7.org/CodeSystem/v2-0203"/>
              <code value="MR"/>
              <display value="Medical record number"/>
            </coding>
          </type>
          <value value="12345777"/>
        </identifier>
        <status value="finished"/>
        <class>
          <code value="inpatient"/>
        </class>
        <priority>
          <coding>
            <system value="http://terminology.hl7.org/CodeSystem/v3-ActPriority"/>
            <code value="EL"/>
            <display value="elective"/>
          </coding>
        </priority>
        <subject>
          <reference value="Patient/39089"/>
          <display value="LN3062 FN3062 MN3062"/>
        </subject>
        <participant>
          <individual>
            <reference value="Practitioner/1472"/>
          </individual>
        </participant>
        <participant>
          <individual>
            <reference value="Practitioner/1473"/>
          </individual>
        </participant>
        <participant>
          <individual>
            <reference value="Practitioner/1474"/>
          </individual>
        </participant>
        <participant>
          <individual>
            <reference value="Practitioner/1475"/>
          </individual>
        </participant>
        <period>
          <start value="2010-11-11T11:12:14.456+07:00"/>
          <end value="2010-11-11T11:12:14.456+07:00"/>
        </period>
        <reasonCode>
          <coding>
            <system value="http://snomed.info/sct"/>
            <code value="109006"/>
            <display value="Anxiety disorder of childhood OR adolescence (disorder)"/>
          </coding>
        </reasonCode>
        <hospitalization>
          <preAdmissionIdentifier>
            <use value="official"/>
            <value value="1234"/>
          </preAdmissionIdentifier>
          <admitSource>
            <coding>
              <system value="http://terminology.hl7.org/CodeSystem/admit-source"/>
              <code value="hosp-trans"/>
              <display value="Transferred from other hospital"/>
            </coding>
          </admitSource>
          <reAdmission>
            <coding>
              <userSelected value="true"/>
            </coding>
          </reAdmission>
          <dietPreference>
            <coding>
              <system value="http://terminology.hl7.org/CodeSystem/diet"/>
              <code value="vegetarian"/>
              <display value="Vegetarian"/>
            </coding>
          </dietPreference>
          <dischargeDisposition>
            <coding>
              <system value="http://terminology.hl7.org/CodeSystem/discharge-disposition"/>
              <code value="aadvice"/>
              <display value="Left against advice"/>
            </coding>
          </dischargeDisposition>
        </hospitalization>
        <location>
          <location>
            <reference value="Location/40336"/>
          </location>
          <physicalType>
            <coding>
              <system value="http://terminology.hl7.org/CodeSystem/location-physical-type"/>
              <code value="bu"/>
              <display value="Building"/>
            </coding>
          </physicalType>
        </location>
        <serviceProvider>
          <reference value="Organization/185"/>
        </serviceProvider>
      </Encounter>
    </resource>
    <search>
      <mode value="include"/>
    </search>
  </entry>
  <entry>
    <fullUrl value="http://hapi.fhir.org/baseR4/Encounter/40370"/>
    <resource>
      <Encounter>
        <id value="40370"/>
        <meta>
          <versionId value="1"/>
          <lastUpdated value="2019-10-04T09:13:50.603+00:00"/>
          <source value="#24af3ad9098ca97b"/>
        </meta>
        <identifier>
          <use value="official"/>
          <type>
            <coding>
              <system value="http://terminology.hl7.org/CodeSystem/v2-0203"/>
              <code value="MR"/>
              <display value="Medical record number"/>
            </coding>
          </type>
          <value value="12345777"/>
        </identifier>
        <status value="finished"/>
        <class>
          <code value="inpatient"/>
        </class>
        <priority>
          <coding>
            <system value="http://terminology.hl7.org/CodeSystem/v3-ActPriority"/>
            <code value="EL"/>
            <display value="elective"/>
          </coding>
        </priority>
        <subject>
          <reference value="Patient/39089"/>
          <display value="LN3062 FN3062 MN3062"/>
        </subject>
        <participant>
          <individual>
            <reference value="Practitioner/1472"/>
          </individual>
        </participant>
        <participant>
          <individual>
            <reference value="Practitioner/1473"/>
          </individual>
        </participant>
        <participant>
          <individual>
            <reference value="Practitioner/1474"/>
          </individual>
        </participant>
        <participant>
          <individual>
            <reference value="Practitioner/1475"/>
          </individual>
        </participant>
        <period>
          <start value="2010-11-11T11:12:14.456+07:00"/>
          <end value="2010-11-11T11:12:14.456+07:00"/>
        </period>
        <reasonCode>
          <coding>
            <system value="http://snomed.info/sct"/>
            <code value="109006"/>
            <display value="Anxiety disorder of childhood OR adolescence (disorder)"/>
          </coding>
        </reasonCode>
        <hospitalization>
          <preAdmissionIdentifier>
            <use value="official"/>
            <value value="1234"/>
          </preAdmissionIdentifier>
          <admitSource>
            <coding>
              <system value="http://terminology.hl7.org/CodeSystem/admit-source"/>
              <code value="hosp-trans"/>
              <display value="Transferred from other hospital"/>
            </coding>
          </admitSource>
          <reAdmission>
            <coding>
              <userSelected value="true"/>
            </coding>
          </reAdmission>
          <dietPreference>
            <coding>
              <system value="http://terminology.hl7.org/CodeSystem/diet"/>
              <code value="vegetarian"/>
              <display value="Vegetarian"/>
            </coding>
          </dietPreference>
          <dischargeDisposition>
            <coding>
              <system value="http://terminology.hl7.org/CodeSystem/discharge-disposition"/>
              <code value="aadvice"/>
              <display value="Left against advice"/>
            </coding>
          </dischargeDisposition>
        </hospitalization>
        <location>
          <location>
            <reference value="Location/40368"/>
          </location>
          <physicalType>
            <coding>
              <system value="http://terminology.hl7.org/CodeSystem/location-physical-type"/>
              <code value="bu"/>
              <display value="Building"/>
            </coding>
          </physicalType>
        </location>
        <serviceProvider>
          <reference value="Organization/185"/>
        </serviceProvider>
      </Encounter>
    </resource>
    <search>
      <mode value="include"/>
    </search>
  </entry>
  <entry>
    <fullUrl value="http://hapi.fhir.org/baseR4/Encounter/40402"/>
    <resource>
      <Encounter>
        <id value="40402"/>
        <meta>
          <versionId value="1"/>
          <lastUpdated value="2019-10-04T09:23:54.756+00:00"/>
          <source value="#5a1b14c244afe235"/>
        </meta>
        <identifier>
          <use value="official"/>
          <type>
            <coding>
              <system value="http://terminology.hl7.org/CodeSystem/v2-0203"/>
              <code value="MR"/>
              <display value="Medical record number"/>
            </coding>
          </type>
          <value value="12345777"/>
        </identifier>
        <status value="finished"/>
        <class>
          <code value="inpatient"/>
        </class>
        <priority>
          <coding>
            <system value="http://terminology.hl7.org/CodeSystem/v3-ActPriority"/>
            <code value="EL"/>
            <display value="elective"/>
          </coding>
        </priority>
        <subject>
          <reference value="Patient/39089"/>
          <display value="LN3062 FN3062 MN3062"/>
        </subject>
        <participant>
          <individual>
            <reference value="Practitioner/1472"/>
          </individual>
        </participant>
        <participant>
          <individual>
            <reference value="Practitioner/1473"/>
          </individual>
        </participant>
        <participant>
          <individual>
            <reference value="Practitioner/1474"/>
          </individual>
        </participant>
        <participant>
          <individual>
            <reference value="Practitioner/1475"/>
          </individual>
        </participant>
        <period>
          <start value="2010-11-11T11:12:14.456+07:00"/>
          <end value="2010-11-11T11:12:14.456+07:00"/>
        </period>
        <reasonCode>
          <coding>
            <system value="http://snomed.info/sct"/>
            <code value="109006"/>
            <display value="Anxiety disorder of childhood OR adolescence (disorder)"/>
          </coding>
        </reasonCode>
        <hospitalization>
          <preAdmissionIdentifier>
            <use value="official"/>
            <value value="1234"/>
          </preAdmissionIdentifier>
          <admitSource>
            <coding>
              <system value="http://terminology.hl7.org/CodeSystem/admit-source"/>
              <code value="hosp-trans"/>
              <display value="Transferred from other hospital"/>
            </coding>
          </admitSource>
          <reAdmission>
            <coding>
              <userSelected value="true"/>
            </coding>
          </reAdmission>
          <dietPreference>
            <coding>
              <system value="http://terminology.hl7.org/CodeSystem/diet"/>
              <code value="vegetarian"/>
              <display value="Vegetarian"/>
            </coding>
          </dietPreference>
          <dischargeDisposition>
            <coding>
              <system value="http://terminology.hl7.org/CodeSystem/discharge-disposition"/>
              <code value="aadvice"/>
              <display value="Left against advice"/>
            </coding>
          </dischargeDisposition>
        </hospitalization>
        <location>
          <location>
            <reference value="Location/40400"/>
          </location>
          <physicalType>
            <coding>
              <system value="http://terminology.hl7.org/CodeSystem/location-physical-type"/>
              <code value="bu"/>
              <display value="Building"/>
            </coding>
          </physicalType>
        </location>
        <serviceProvider>
          <reference value="Organization/185"/>
        </serviceProvider>
      </Encounter>
    </resource>
    <search>
      <mode value="include"/>
    </search>
  </entry>
  <entry>
    <fullUrl value="http://hapi.fhir.org/baseR4/Patient/41945"/>
    <resource>
      <Patient>
        <id value="41945"/>
        <meta>
          <versionId value="1"/>
          <lastUpdated value="2019-10-09T20:12:46.170+00:00"/>
          <source value="#0039a8ac27dbc4fb"/>
        </meta>
        <text>
          <status value="generated"/>
          <div>Emma Walker</div>
        </text>
        <name>
          <use value="official"/>
          <text value="Emma Walker"/>
          <family value="Walker"/>
          <given value="Emma"/>
        </name>
        <gender value="female"/>
        <birthDate value="1970-10-09"/>
      </Patient>
    </resource>
    <search>
      <mode value="include"/>
    </search>
  </entry>
  <entry>
    <fullUrl value="http://hapi.fhir.org/baseR4/Patient/37981"/>
    <resource>
      <Patient>
        <id value="37981"/>
        <meta>
          <versionId value="1"/>
          <lastUpdated value="2019-09-30T11:04:58.065+00:00"/>
          <source value="#3db19c3700f435de"/>
        </meta>
        <text>
          <status value="generated"/>
          <div>
            <div class="hapiHeaderText">S 
                     <b>Smita </b> 
                  </div>
            <table class="hapiPropertyTable">
              <tbody>
                <tr>
                  <td>Identifier</td>
                  <td>6d9dfc74-fd13-4784-b38e-8dc69e43a97d</td>
                </tr>
              </tbody>
            </table>
          </div>
        </text>
        <identifier>
          <type>
            <coding>
              <system value="http://hl7.org/fhir/v2/0203"/>
              <code value="Ms"/>
            </coding>
          </type>
          <value value="6d9dfc74-fd13-4784-b38e-8dc69e43a97d"/>
        </identifier>
        <name>
          <family value="Smita"/>
          <given value="S"/>
        </name>
        <gender value="female"/>
        <birthDate value="1936-03-12"/>
        <generalPractitioner>
          <reference value="Practitioner/1385"/>
          <display value="Roshni-General Practitioner"/>
        </generalPractitioner>
      </Patient>
    </resource>
    <search>
      <mode value="include"/>
    </search>
  </entry>
  <entry>
    <fullUrl value="http://hapi.fhir.org/baseR4/Encounter/40286"/>
    <resource>
      <Encounter>
        <id value="40286"/>
        <meta>
          <versionId value="1"/>
          <lastUpdated value="2019-10-04T08:36:24.533+00:00"/>
          <source value="#45e5d1559dcf9840"/>
        </meta>
        <identifier>
          <use value="official"/>
          <type>
            <coding>
              <system value="http://terminology.hl7.org/CodeSystem/v2-0203"/>
              <code value="MR"/>
              <display value="Medical record number"/>
            </coding>
          </type>
          <value value="12345777"/>
        </identifier>
        <status value="finished"/>
        <class>
          <code value="inpatient"/>
        </class>
        <priority>
          <coding>
            <system value="http://terminology.hl7.org/CodeSystem/v3-ActPriority"/>
            <code value="EL"/>
            <display value="elective"/>
          </coding>
        </priority>
        <subject>
          <reference value="Patient/39089"/>
          <display value="LN3062 FN3062 MN3062"/>
        </subject>
        <participant>
          <individual>
            <reference value="Practitioner/1472"/>
          </individual>
        </participant>
        <participant>
          <individual>
            <reference value="Practitioner/1473"/>
          </individual>
        </participant>
        <participant>
          <individual>
            <reference value="Practitioner/1474"/>
          </individual>
        </participant>
        <participant>
          <individual>
            <reference value="Practitioner/1475"/>
          </individual>
        </participant>
        <period>
          <start value="2010-11-11T11:12:14.456+07:00"/>
          <end value="2010-11-11T11:12:14.456+07:00"/>
        </period>
        <reasonCode>
          <coding>
            <system value="http://snomed.info/sct"/>
            <code value="109006"/>
            <display value="Anxiety disorder of childhood OR adolescence (disorder)"/>
          </coding>
        </reasonCode>
        <hospitalization>
          <preAdmissionIdentifier>
            <use value="official"/>
            <value value="1234"/>
          </preAdmissionIdentifier>
          <admitSource>
            <coding>
              <system value="http://terminology.hl7.org/CodeSystem/admit-source"/>
              <code value="hosp-trans"/>
              <display value="Transferred from other hospital"/>
            </coding>
          </admitSource>
          <reAdmission>
            <coding>
              <userSelected value="true"/>
            </coding>
          </reAdmission>
          <dietPreference>
            <coding>
              <system value="http://terminology.hl7.org/CodeSystem/diet"/>
              <code value="vegetarian"/>
              <display value="Vegetarian"/>
            </coding>
          </dietPreference>
          <dischargeDisposition>
            <coding>
              <system value="http://terminology.hl7.org/CodeSystem/discharge-disposition"/>
              <code value="aadvice"/>
              <display value="Left against advice"/>
            </coding>
          </dischargeDisposition>
        </hospitalization>
        <location>
          <location>
            <reference value="Location/40284"/>
          </location>
          <physicalType>
            <coding>
              <system value="http://terminology.hl7.org/CodeSystem/location-physical-type"/>
              <code value="bu"/>
              <display value="Building"/>
            </coding>
          </physicalType>
        </location>
        <serviceProvider>
          <reference value="Organization/185"/>
        </serviceProvider>
      </Encounter>
    </resource>
    <search>
      <mode value="include"/>
    </search>
  </entry>
  <entry>
    <fullUrl value="http://hapi.fhir.org/baseR4/Patient/37982"/>
    <resource>
      <Patient>
        <id value="37982"/>
        <meta>
          <versionId value="2"/>
          <lastUpdated value="2019-09-30T11:08:57.905+00:00"/>
          <source value="#ecab0aeadfd5d6bd"/>
        </meta>
        <text>
          <status value="generated"/>
          <div>
            <div class="hapiHeaderText">B 
                     <b>Pratik </b> 
                  </div>
            <table class="hapiPropertyTable">
              <tbody>
                <tr>
                  <td>Identifier</td>
                  <td>6d9dfc74-fd13-4784-b38e-8dc69e43a97d</td>
                </tr>
              </tbody>
            </table>
          </div>
        </text>
        <identifier>
          <type>
            <coding>
              <system value="http://hl7.org/fhir/v2/0203"/>
              <code value="Ms"/>
            </coding>
          </type>
          <value value="6d9dfc74-fd13-4784-b38e-8dc69e43a97d"/>
        </identifier>
        <name>
          <family value="Pratik"/>
          <given value="B"/>
        </name>
        <gender value="male"/>
        <birthDate value="1966-05-10"/>
        <generalPractitioner>
          <reference value="Practitioner/1385"/>
          <display value="Roshni-General Practitioner"/>
        </generalPractitioner>
      </Patient>
    </resource>
    <search>
      <mode value="include"/>
    </search>
  </entry>
  <entry>
    <fullUrl value="http://hapi.fhir.org/baseR4/Patient/37983"/>
    <resource>
      <Patient>
        <id value="37983"/>
        <meta>
          <versionId value="1"/>
          <lastUpdated value="2019-09-30T11:10:00.380+00:00"/>
          <source value="#452d589762c96a5e"/>
        </meta>
        <text>
          <status value="generated"/>
          <div>
            <div class="hapiHeaderText">S 
                     <b>Smita </b> 
                  </div>
            <table class="hapiPropertyTable">
              <tbody>
                <tr>
                  <td>Identifier</td>
                  <td>6d9dfc74-fd13-4784-b38e-8dc69e43a97d</td>
                </tr>
              </tbody>
            </table>
          </div>
        </text>
        <identifier>
          <type>
            <coding>
              <system value="http://hl7.org/fhir/v2/0203"/>
              <code value="Mr"/>
            </coding>
          </type>
          <value value="6d9dfc74-fd13-4784-b38e-8dc69e43a97d"/>
        </identifier>
        <name>
          <family value="Harshil"/>
          <given value="N"/>
        </name>
        <gender value="male"/>
        <birthDate value="1986-04-15"/>
        <generalPractitioner>
          <reference value="Practitioner/1385"/>
          <display value="Roshni-General Practitioner"/>
        </generalPractitioner>
      </Patient>
    </resource>
    <search>
      <mode value="include"/>
    </search>
  </entry>
</Bundle>
